Id,Time,AccX,AccY,AccZ,GyroX,GyroY,GyroZ,MagX,MagY,MagZ,Temp,Humi,pitch,roll,yaw
1,0,-0.004869243,-0.05203046,1.000774,52.79007,-580.1721,-223.4263,-0.1590818,0.652838,-0.0135072,28.86403,53.58262,0,0,0
2,0.005,-0.001713471,-0.05123935,0.9989192,39.74069,-588.6259,-226.007,-0.1529534,0.6566569,-0.01685108,28.85034,53.57277,0,0,0
3,0.01,-0.003696596,-0.05151472,1.000615,-27.693,-544.8901,-241.2444,-0.1485768,0.6603412,-0.01800888,28.8414,53.5696,0,0,0
4,0.015,-0.0006268932,-0.04975462,0.9973409,102.7536,-585.2576,-276.4706,-0.1458696,0.6572743,-0.01407525,28.83724,53.57303,0,0,0
5,0.02,-0.004645326,-0.051273,1.000716,153.9007,-515.5288,-248.8163,-0.1470765,0.6528376,-0.009004729,28.83772,53.58269,0,0,0
6,0.025,-0.002137648,-0.05189779,1.000839,143.2284,-561.5787,-213.7078,-0.1518062,0.6501974,-0.007952385,28.84257,53.59802,0,0,0
7,0.03,-0.004661913,-0.05119777,1.000781,197.6071,-561.9854,-223.8033,-0.1560803,0.6528376,-0.01050572,28.85138,53.61829,0,0,0
8,0.035,-0.003863097,-0.05031227,0.9982395,83.1653,-588.5283,-245.9855,-0.1538856,0.6536291,-0.01344212,28.86364,53.64261,0,0,0
9,0.04,-0.007403169,-0.05010084,0.9984176,155.3381,-529.7501,-235.5881,-0.147076,0.6528376,-0.01650872,28.87877,53.67001,0,0,0
10,0.045,-0.003635077,-0.05003244,0.9985973,78.77164,-596.598,-248.887,-0.1423669,0.6502716,-0.01959616,28.89613,53.6995,0,0,0
11,0.05,-0.00708082,-0.05237158,1.002015,20.61463,-551.2159,-243.4475,-0.1455761,0.6513369,-0.01950946,28.91503,53.73003,0,0,0
12,0.055,-0.004768446,-0.05040938,0.996083,1.346614,-631.575,-272.2448,-0.1533492,0.6518517,-0.01450431,28.93479,53.76057,0,0,0
13,0.06,-0.006359089,-0.05098598,0.9984148,53.21001,-584.4829,-283.4361,-0.159082,0.6513367,-0.009004747,28.95398,53.7888,0,0,0
14,0.065,-0.003783551,-0.04945895,0.9948468,34.375,-579.8608,-224.7512,-0.1583631,0.6474797,-0.008034538,28.96618,53.8032,0,0,0
15,0.07,-0.006203297,-0.05196842,1.001062,-55.83899,-576.5766,-256.5948,-0.1545798,0.6468349,-0.01050543,28.97644,53.81345,0,0,0
16,0.075,-0.002152492,-0.04977774,0.9950234,34.43063,-592.9003,-255.7728,-0.1520586,0.6482776,-0.01174496,28.98449,53.81942,0,0,0
17,0.08,-0.003485386,-0.05126698,0.9987351,83.10435,-541.3335,-277.0637,-0.1530793,0.6513368,-0.01050534,28.99023,53.82128,0,0,0
18,0.085,-0.001333961,-0.0494814,0.9911315,80.95528,-534.89,-330.3668,-0.1549709,0.6503746,-0.008925557,28.99367,53.81944,0,0,0
19,0.09,-0.003498106,-0.05016697,0.9978766,3.199739,-572.2654,-173.753,-0.1560806,0.6498364,-0.009005104,28.99496,53.81447,0,0,0
20,0.095,-0.001893732,-0.04966888,0.9946216,20.32545,-609.9891,-190.6193,-0.1550378,0.6503688,-0.01158406,28.99434,53.80716,0,0,0
21,0.1,-0.004735845,-0.05152256,0.9973889,50.92632,-542.7538,-249.9272,-0.1530791,0.6543386,-0.01650881,28.99216,53.79842,0,0,0
22,0.105,-0.0004709656,-0.05087668,0.9928345,69.51984,-632.7325,-276.5546,-0.1511231,0.6561053,-0.02089517,28.98882,53.7892,0,0,0
23,0.11,-0.004604167,-0.04983962,0.9944438,80.59394,-561.3953,-176.446,-0.1515787,0.65734,-0.0210106,28.98476,53.78049,0,0,0
24,0.115,-0.0003722036,-0.05143616,0.9940038,115.9236,-583.5641,-209.0492,-0.1537714,0.6566625,-0.01763096,28.98045,53.77325,0,0,0
25,0.12,-0.002055641,-0.04984495,0.9967828,84.99722,-585.2776,-201.9939,-0.1560807,0.6573398,-0.01650899,28.97631,53.76833,0,0,0
26,0.125,-0.002350791,-0.04999015,0.996423,33.38577,-603.2053,-206.3795,-0.1562174,0.6557217,-0.02023876,28.97276,53.76644,0,0,0
27,0.13,-0.00314549,-0.04810676,0.9943076,97.0244,-592.6239,-259.0701,-0.156081,0.6543384,-0.02401188,28.97012,53.76811,0,0,0
28,0.135,-0.002253264,-0.05033138,0.994945,49.89399,-602.0017,-201.3698,-0.1574112,0.6520555,-0.02184816,28.96865,53.77367,0,0,0
29,0.14,-0.002390894,-0.05217267,0.9972493,51.84657,-571.7648,-211.6962,-0.160583,0.6528378,-0.01500749,28.96852,53.78317,0,0,0
30,0.145,-0.003418669,-0.05089632,0.9979308,43.38821,-581.7039,-249.5461,-0.1617283,0.6532367,-0.01005673,28.96266,53.78331,0,0,0
31,0.15,-0.002008964,-0.05110975,0.9978226,58.21584,-627.2966,-268.0271,-0.1590817,0.6543384,-0.01050561,28.95725,53.78517,0,0,0
32,0.155,-0.003879426,-0.05002362,0.9969143,67.38926,-543.9966,-257.8662,-0.1536316,0.6530354,-0.01309822,28.95244,53.78868,0,0,0
33,0.16,-0.002493884,-0.05081751,0.998904,126.1393,-559.9567,-278.1457,-0.1500778,0.6528374,-0.01350688,28.94835,53.79364,0,0,0
34,0.165,-0.005890281,-0.05091966,1.001251,92.14513,-501.71,-269.2438,-0.1500664,0.651174,-0.01207713,28.94507,53.79984,0,0,0
35,0.17,-0.001597311,-0.05094356,0.9999921,88.80255,-604.8015,-246.4058,-0.1530796,0.6498358,-0.0120061,28.94267,53.80698,0,0,0
36,0.175,-0.004074268,-0.05144662,0.9995805,57.70722,-559.4124,-250.3835,-0.156168,0.6462809,-0.01268396,28.9412,53.81477,0,0,0
37,0.18,-0.001299004,-0.05023968,0.9975788,28.05351,-596.16,-273.8649,-0.1590825,0.6453341,-0.01050511,28.94071,53.82288,0,0,0
38,0.185,-0.004786369,-0.05292622,1.00273,130.2106,-559.9775,-285.767,-0.1611466,0.6460154,-0.006296251,28.94121,53.83101,0,0,0
39,0.19,-0.00270959,-0.04963709,0.999965,10.55914,-570.2719,-236.317,-0.1620834,0.6498364,-0.006003642,28.94271,53.83889,0,0,0
40,0.195,-0.005916354,-0.05270638,1.00571,-36.88649,-520.9671,-211.057,-0.160006,0.651483,-0.0106158,28.94519,53.84621,0,0,0
41,0.2,-0.001472071,-0.04891228,0.9967099,-79.38335,-637.1831,-189.5599,-0.1560804,0.6528376,-0.01350677,28.94864,53.85278,0,0,0
42,0.205,-0.00659891,-0.05051079,1.003376,77.40251,-564.9457,-179.1107,-0.1523169,0.6523095,-0.01145777,28.95299,53.85838,0,0,0
43,0.21,-0.00396945,-0.05032489,0.9973433,51.48687,-588.9626,-196.5098,-0.1515786,0.6528372,-0.01050597,28.95819,53.86285,0,0,0
44,0.215,-0.009219119,-0.05156647,1.003942,6.821192,-553.3027,-184.3073,-0.1527909,0.6502324,-0.0145166,28.96415,53.86608,0,0,0
45,0.22,-0.003707372,-0.05027355,0.9953364,-21.97326,-613.4711,-298.0509,-0.15458,0.6468344,-0.0180091,28.97072,53.86798,0,0,0
46,0.225,-0.006152339,-0.05082275,0.9989412,3.454804,-480.5636,-292.5238,-0.1553857,0.6429695,-0.01654528,28.96609,53.84678,0,0,0
47,0.23,-0.003492529,-0.05095837,0.9957912,31.10779,-585.3783,-304.0919,-0.1560805,0.6453347,-0.01500787,28.96062,53.822,0,0,0
48,0.235,-0.00474311,-0.04988145,1.00057,156.9522,-492.4564,-275.2675,-0.1554036,0.6513416,-0.01683681,28.95592,53.797,0,0,0
49,0.24,-0.0009035715,-0.05057748,0.9978126,170.5567,-566.5443,-277.6853,-0.1530791,0.6588407,-0.01650789,28.95213,53.77239,0,0,0
50,0.245,-0.00404901,-0.04974286,0.9986351,139.8302,-550.0872,-273.3246,-0.150221,0.6599522,-0.01078563,28.94935,53.74881,0,0,0
51,0.25,-0.002325612,-0.05054709,0.9952047,82.29612,-571.9745,-262.0219,-0.1515793,0.6573397,-0.007504633,28.94764,53.72686,0,0,0
52,0.255,-0.003265305,-0.05097747,0.9977188,9.409151,-597.723,-254.4592,-0.1574525,0.652948,-0.01238533,28.94706,53.70713,0,0,0
53,0.26,-0.002988652,-0.05032937,0.9973491,-25.5188,-517.0278,-245.1963,-0.1635843,0.6528375,-0.01800878,28.94765,53.69017,0,0,0
54,0.265,-0.003512688,-0.04983396,0.9970193,60.62486,-515.5255,-244.6475,-0.1638124,0.6525461,-0.01574545,28.94942,53.67649,0,0,0
55,0.27,-0.004767661,-0.04942632,0.9935687,52.44818,-573.0587,-246.7617,-0.1590817,0.6513366,-0.01050597,28.95234,53.66655,0,0,0
56,0.275,-0.003883826,-0.04916593,0.9960797,52.89885,-625.0167,-296.4808,-0.1536804,0.6471258,-0.01182355,28.95642,53.66071,0,0,0
57,0.28,-0.006024888,-0.04951688,0.9967687,42.31656,-566.4538,-253.7754,-0.1515784,0.6468351,-0.0180091,28.96159,53.65924,0,0,0
58,0.285,-0.001311113,-0.04819388,0.9970894,47.06706,-622.4988,-261.9305,-0.1513572,0.6495337,-0.01962202,28.96779,53.66233,0,0,0
59,0.29,-0.003972515,-0.04959863,0.9954965,86.24594,-551.8351,-244.7221,-0.1515784,0.6543383,-0.01500764,28.97491,53.67001,0,0,0
60,0.295,-0.0001141748,-0.05035069,0.993451,63.48723,-658.8937,-235.9723,-0.1511272,0.6543788,-0.01154221,28.98285,53.68224,0,0,0
61,0.3,-0.001572853,-0.05239164,0.996765,138.0809,-554.0681,-288.4188,-0.1515786,0.6528375,-0.01350711,28.99144,53.69876,0,0,0
62,0.305,0.0003427366,-0.04993247,0.9966906,164.5092,-607.3082,-286.155,-0.1527909,0.6505738,-0.01642667,28.99026,53.70021,0,0,0
63,0.31,-0.004296645,-0.05289146,1.000208,104.3013,-560.5079,-214.0057,-0.1545799,0.6513367,-0.01500726,28.98668,53.70018,0,0,0
64,0.315,0.0004503625,-0.05131789,0.9948831,61.29298,-642.1228,-269.6141,-0.1549736,0.6500291,-0.01057543,28.98376,53.70414,0,0,0
65,0.32,-0.003418081,-0.05270752,0.9999044,45.22484,-563.0667,-192.8171,-0.1545802,0.6483356,-0.009005409,28.98158,53.71197,0,0,0
66,0.325,-0.003412568,-0.04857167,0.9977786,24.73101,-628.0844,-184.8059,-0.1546327,0.6467927,-0.01286304,28.98021,53.72344,0,0,0
67,0.33,-0.004953836,-0.05286161,1.005124,103.0067,-570.6876,-224.8534,-0.1575821,0.6513377,-0.01800882,28.97969,53.73821,0,0,0
68,0.335,-0.002387844,-0.04852889,0.9972042,54.98611,-630.7788,-311.2941,-0.1620261,0.6570207,-0.01783458,28.98003,53.75584,0,0,0
69,0.34,-0.006521328,-0.05051475,1.002012,-4.423094,-559.0571,-261.0819,-0.1650848,0.6603408,-0.01200634,28.98125,53.77584,0,0,0
70,0.345,-0.00415866,-0.04805609,0.9978898,42.7938,-571.1467,-282.8047,-0.1630241,0.6560391,-0.008367135,28.98333,53.7977,0,0,0
71,0.35,-0.005299251,-0.05179079,1.003646,75.73809,-564.3354,-304.3055,-0.1575813,0.6513371,-0.01350786,28.98623,53.82079,0,0,0
72,0.355,-0.0009587228,-0.0508089,0.9986271,74.38043,-633.4822,-299.8655,-0.1532525,0.6494026,-0.02233504,28.98993,53.84454,0,0,0
73,0.36,-0.003583702,-0.05135131,1.000592,28.55092,-584.6712,-302.9947,-0.1545804,0.6528375,-0.02401142,28.99438,53.86834,0,0,0
74,0.365,-0.00130844,-0.05075494,0.9990206,10.36567,-603.3785,-270.321,-0.1588028,0.6536316,-0.01725551,28.99949,53.89161,0,0,0
75,0.37,-0.005920871,-0.05036173,1.000612,77.34657,-569.9758,-225.4393,-0.1605823,0.6513364,-0.01200646,29.00519,53.91381,0,0,0
76,0.375,-0.002964422,-0.05147398,1.001076,53.8787,-620.4517,-241.5525,-0.1566823,0.6460955,-0.01335398,29.01136,53.93438,0,0,0
77,0.38,-0.005212824,-0.05101505,1.001144,145.2597,-625.3865,-250.4197,-0.1515784,0.6453342,-0.01500751,29.01789,53.9528,0,0,0
78,0.385,-0.005284212,-0.05336373,0.9987383,45.14806,-590.8689,-192.7651,-0.1495847,0.6472754,-0.01251655,29.01582,53.9523,0,0,0
79,0.39,-0.005236443,-0.05132233,0.9986631,-4.099892,-592.5585,-220.1166,-0.1515786,0.6513369,-0.01200696,29.00961,53.94102,0,0,0
80,0.395,-0.006564111,-0.05067623,0.9978874,77.49654,-525.8718,-228.8258,-0.1535922,0.6517138,-0.0174453,29.00381,53.92749,0,0,0
81,0.4,-0.004526743,-0.05114926,0.9993995,168.3414,-562.5049,-240.2903,-0.1545801,0.6513368,-0.02100986,28.99858,53.91201,0,0,0
82,0.405,-0.005717832,-0.0490979,0.9980623,97.44778,-545.0013,-240.3477,-0.155049,0.6496187,-0.01580183,28.99402,53.89496,0,0,0
83,0.41,-0.003753096,-0.04990681,0.9958777,49.52462,-617.1257,-193.0677,-0.1560804,0.6498359,-0.009005283,28.99022,53.87676,0,0,0
84,0.415,-0.004585812,-0.04840355,0.9961837,107.2922,-531.2635,-242.2997,-0.1551193,0.6480345,-0.01036484,28.98727,53.85786,0,0,0
85,0.42,-0.001843177,-0.05019968,0.9973944,152.0957,-600.8375,-242.6012,-0.151578,0.6468349,-0.01650825,28.98523,53.83871,0,0,0
86,0.425,-0.003491068,-0.05103064,0.9967748,65.74791,-543.7334,-244.9723,-0.1473089,0.6459098,-0.01765204,28.98412,53.81985,0,0,0
87,0.43,-0.001050824,-0.05006028,0.9947754,106.6752,-601.7037,-205.2019,-0.1470769,0.6498368,-0.01350684,28.98399,53.80175,0,0,0
88,0.435,-0.00316485,-0.05014196,0.9955629,21.26248,-578.1784,-215.1281,-0.1511141,0.6541767,-0.01081485,28.98484,53.78492,0,0,0
89,0.44,-0.00128987,-0.04924111,0.9939204,1.869682,-562.1689,-273.2218,-0.1560805,0.6573393,-0.01200693,28.98667,53.76982,0,0,0
90,0.445,-0.005305175,-0.05269908,0.9988231,81.16686,-557.9677,-218.4151,-0.1565565,0.6541616,-0.0151196,28.98944,53.75689,0,0,0
91,0.45,-0.003217561,-0.05033367,0.9945679,1.602787,-591.5562,-209.4677,-0.153079,0.6498361,-0.01951024,28.99311,53.74646,0,0,0
92,0.455,-0.004313767,-0.05220059,0.9965093,30.85156,-546.0673,-211.5382,-0.1498822,0.6469035,-0.02299619,28.99759,53.73884,0,0,0
93,0.46,-0.0005050544,-0.04929472,0.9905776,60.81445,-643.4702,-303.2653,-0.151579,0.6498361,-0.02101001,29.00278,53.73418,0,0,0
94,0.465,-0.004184141,-0.05221855,0.9982168,111.6309,-514.5321,-219.3457,-0.155531,0.6514557,-0.01467572,29.00122,53.71895,0,0,0
95,0.47,0.0005589364,-0.05028683,0.9942362,43.16861,-614.322,-260.2033,-0.1575815,0.6498358,-0.01200635,28.99438,53.69616,0,0,0
96,0.475,-0.003218238,-0.05198921,0.9984862,174.8981,-538.339,-201.3905,-0.1566954,0.6450712,-0.01445788,28.9883,53.67723,0,0,0
97,0.48,0.0001576822,-0.05065975,0.9921635,132.3347,-604.5455,-213.1893,-0.1575819,0.6468356,-0.01350599,28.9831,53.66248,0,0,0
98,0.485,-0.003519314,-0.05075161,0.9967451,61.88192,-564.7747,-262.6055,-0.1606339,0.6527476,-0.006307459,28.97887,53.65217,0,0,0
99,0.49,-0.00135253,-0.05047574,0.9968123,146.1923,-568.4855,-174.9339,-0.1620831,0.657339,-0.003002697,28.97568,53.64639,0,0,0
100,0.495,-0.003756316,-0.04946513,1.00082,72.61839,-574.8655,-193.8376,-0.1586407,0.6526052,-0.009162368,28.97359,53.64513,0,0,0
101,0.5,-0.004157103,-0.05114347,0.9982846,60.65145,-607.3876,-211.1865,-0.1545798,0.6468351,-0.01500705,28.97261,53.64826,0,0,0
102,0.505,-0.006944306,-0.04849144,0.9989382,122.7391,-555.2621,-244.3701,-0.1531224,0.6461365,-0.01190502,28.97274,53.65557,0,0,0
103,0.51,-0.006201723,-0.04976773,0.9981869,65.66132,-607.3566,-212.8676,-0.1530787,0.6528376,-0.007505026,28.97398,53.66677,0,0,0
104,0.515,-0.007310412,-0.05251257,1.002341,105.1558,-564.7727,-273.8552,-0.1507243,0.6555599,-0.01164923,28.97629,53.6815,0,0,0
105,0.52,-0.005174849,-0.05158232,1.000383,25.04695,-594.0065,-310.4226,-0.1485773,0.6528376,-0.01950981,28.97963,53.69931,0,0,0
106,0.525,-0.004843922,-0.0522798,1.000578,71.8737,-615.223,-311.6977,-0.1495561,0.6485648,-0.02079345,28.98391,53.71974,0,0,0
107,0.53,-0.003782897,-0.05053557,0.9973757,96.7082,-568.1268,-369.2948,-0.1530792,0.6528383,-0.01650825,28.98906,53.74225,0,0,0
108,0.535,-0.003249639,-0.05292824,1.001354,159.1956,-591.3262,-281.4058,-0.1543394,0.6592889,-0.01385049,28.99496,53.76629,0,0,0
109,0.54,-0.003071805,-0.05102657,1.000539,98.86543,-549.1775,-259.05,-0.153079,0.6603402,-0.01350684,29.00146,53.79125,0,0,0
110,0.545,-0.002761047,-0.05053061,1.00285,75.5574,-539.7434,-217.5433,-0.1513493,0.6518818,-0.01238094,29.00256,53.80566,0,0,0
111,0.55,-0.002095998,-0.04933828,0.9981075,35.99837,-557.0923,-244.5166,-0.1515787,0.6468355,-0.01200637,28.99673,53.80646,0,0,0
112,0.555,-0.00212701,-0.05045117,0.9976829,54.79735,-598.0369,-249.4803,-0.1526917,0.6493735,-0.01380741,28.99146,53.80729,0,0,0
113,0.56,-0.005186944,-0.05174589,0.9984151,-28.06597,-542.361,-186.0055,-0.1545801,0.6558385,-0.01350618,28.98687,53.8082,0,0,0
114,0.565,-0.005394706,-0.05000464,0.9995623,26.92798,-592.9633,-195.0882,-0.1558898,0.6544503,-0.008664638,28.98305,53.80923,0,0,0
115,0.57,-0.006446229,-0.05119804,0.9994855,23.93396,-571.1081,-233.9076,-0.1560804,0.6498366,-0.006004715,28.98009,53.81043,0,0,0
116,0.575,-0.004747903,-0.0492012,0.9950271,61.33673,-575.3763,-235.3391,-0.1543511,0.6481921,-0.01177065,28.97802,53.8119,0,0,0
117,0.58,-0.006224854,-0.0511051,0.9996881,91.39261,-531.1963,-194.3292,-0.1530793,0.6543391,-0.02101054,28.97689,53.81376,0,0,0
118,0.585,-0.00236952,-0.04934869,0.9955149,80.38686,-578.2776,-304.2867,-0.1530986,0.6591482,-0.02354733,28.97673,53.81608,0,0,0
119,0.59,-0.004806522,-0.05305239,1.002136,58.61215,-531.3457,-274.074,-0.1545803,0.6603409,-0.01800867,28.97754,53.81905,0,0,0
120,0.595,0.001397788,-0.04887301,0.9928536,41.16506,-608.8974,-262.352,-0.155951,0.656738,-0.01226901,28.97931,53.8228,0,0,0
121,0.6,-0.005213744,-0.05172913,0.9982057,44.55338,-539.4155,-212.3474,-0.1575813,0.6543379,-0.01200637,28.98202,53.82746,0,0,0
122,0.605,-0.00030015,-0.0507081,0.9937335,-16.44021,-606.9148,-185.6207,-0.157866,0.6512499,-0.01427149,28.98563,53.83321,0,0,0
123,0.61,-0.004705532,-0.05037392,0.9997694,154.8163,-532.0888,-163.5738,-0.1560803,0.6498361,-0.01350634,28.99007,53.84013,0,0,0
124,0.615,-0.0007185014,-0.04997558,0.9944305,65.20815,-612.7208,-231.041,-0.1526816,0.6481367,-0.009529212,28.99527,53.84834,0,0,0
125,0.62,-0.006277521,-0.0487404,0.9972037,26.22225,-541.6683,-190.3112,-0.1515787,0.6498365,-0.007504686,29.0011,53.85783,0,0,0
126,0.625,-0.001147757,-0.04949471,0.9922898,69.78478,-622.518,-227.4393,-0.1529323,0.6514485,-0.01044648,29.00304,53.86041,0,0,0
127,0.63,-0.005424829,-0.04959882,0.9984943,42.703,-497.2462,-247.6804,-0.1545801,0.6528369,-0.01500728,28.99663,53.84805,0,0,0
128,0.635,-0.002527214,-0.05003173,0.9958259,-44.28252,-555.0893,-222.3501,-0.1546371,0.6492725,-0.01534131,28.99084,53.83754,0,0,0
129,0.64,-0.004009997,-0.04980658,0.9991632,87.56875,-550.468,-189.6112,-0.1560811,0.6453339,-0.01050479,28.98578,53.82927,0,0,0
130,0.645,-0.001763844,-0.04930234,0.9948279,26.43087,-595.8611,-310.477,-0.1587353,0.6429359,-0.005213822,28.98158,53.82357,0,0,0
131,0.65,-0.001547055,-0.05192298,0.9971097,29.22452,-583.5205,-216.9999,-0.1590813,0.6468352,-0.004503455,28.97831,53.82066,0,0,0
132,0.655,-0.001986166,-0.05089217,0.9985265,97.09241,-566.2318,-215.5881,-0.1543597,0.6509244,-0.00881665,28.97603,53.82067,0,0,0
133,0.66,-0.001114717,-0.05301182,1.001346,120.6851,-561.8452,-186.8286,-0.1500783,0.652837,-0.01500841,28.97479,53.8237,0,0,0
134,0.665,-0.002662865,-0.05219833,0.9989324,107.0452,-534.4769,-242.6496,-0.1511088,0.6490884,-0.0196313,28.97458,53.82972,0,0,0
135,0.67,-0.00403173,-0.0501771,0.9988738,127.7756,-584.6456,-246.2327,-0.1560806,0.6468353,-0.02101022,28.97542,53.83865,0,0,0
136,0.675,-0.007144162,-0.05001542,0.9992216,11.55526,-535.8052,-235.2281,-0.1577781,0.648034,-0.01904694,28.97729,53.85036,0,0,0
137,0.68,-0.004998517,-0.05101367,1.00083,104.5814,-539.4171,-210.2068,-0.1545792,0.6543382,-0.01500687,28.98015,53.86461,0,0,0
138,0.685,-0.006917907,-0.0511806,1.002083,39.85984,-531.9451,-238.9691,-0.1497542,0.656429,-0.01059239,28.98396,53.88117,0,0,0
139,0.69,-0.003503568,-0.04936299,0.9980429,1.734312,-618.7982,-261.3115,-0.1485777,0.6528369,-0.00750406,28.98864,53.89966,0,0,0
140,0.695,-0.006021725,-0.05046734,1.003106,57.37577,-599.8571,-266.0182,-0.151372,0.6459285,-0.006936044,28.99408,53.91973,0,0,0
141,0.7,-0.002141642,-0.04882298,0.9987491,116.1454,-582.2516,-275.3154,-0.1560807,0.6468354,-0.009005015,29.00019,53.94091,0,0,0
142,0.705,-0.004520632,-0.05193406,1.004947,90.50312,-520.4325,-239.971,-0.1580439,0.6519792,-0.01146216,29.00385,53.95728,0,0,0
143,0.71,-0.00163085,-0.04871745,0.9981245,61.36096,-623.653,-287.8755,-0.1560802,0.654337,-0.01200639,28.99767,53.95485,0,0,0
144,0.715,-0.006703836,-0.05117477,1.002655,25.86392,-559.1755,-231.3318,-0.1521519,0.6474856,-0.01168513,28.99206,53.95271,0,0,0
145,0.72,-0.001107476,-0.05011176,0.9961398,10.56956,-609.8472,-238.4365,-0.1515793,0.642333,-0.01350734,28.98714,53.9509,0,0,0
146,0.725,-0.005773982,-0.05152841,1.004164,99.62001,-523.7978,-224.2999,-0.1550554,0.6431007,-0.01648465,28.98301,53.94938,0,0,0
147,0.73,-0.002277131,-0.04978742,0.9973217,53.99007,-595.5342,-216.4761,-0.1590814,0.6483357,-0.01650818,28.97977,53.9482,0,0,0
148,0.735,-0.007130273,-0.05079849,1.001146,42.28698,-488.8768,-167.0287,-0.157659,0.649519,-0.01387699,28.97746,53.94728,0,0,0
149,0.74,-0.005328878,-0.05005579,0.9958823,24.49636,-576.7563,-212.1476,-0.1515782,0.6513373,-0.01350681,28.97612,53.94661,0,0,0
150,0.745,-0.008886158,-0.05004992,1.000981,28.06366,-541.3143,-252.294,-0.1470404,0.653513,-0.01496203,28.97578,53.94616,0,0,0
151,0.75,-0.004533649,-0.05013372,0.9983118,62.32691,-602.7753,-182.3384,-0.1500783,0.6543375,-0.01200549,28.97644,53.94587,0,0,0
152,0.755,-0.006396988,-0.04986082,0.9974111,61.97085,-546.3636,-276.6794,-0.1557408,0.6488618,-0.005537648,28.9781,53.94571,0,0,0
153,0.76,-0.002352675,-0.05070219,0.994863,76.04387,-585.4724,-273.8106,-0.1560802,0.6468358,-0.006005073,28.98073,53.94567,0,0,0
154,0.765,-0.003494138,-0.04969496,0.996089,76.68034,-559.2,-236.9291,-0.1512633,0.6509495,-0.01584505,28.98427,53.94565,0,0,0
155,0.77,-0.001658821,-0.05017102,0.9947464,9.101837,-599.3823,-257.6432,-0.1515796,0.6573391,-0.02251021,28.98867,53.94564,0,0,0
156,0.775,-0.001200252,-0.05117229,0.9973572,41.50443,-599.9597,-261.0405,-0.1582982,0.6549698,-0.01748888,28.99384,53.94554,0,0,0
157,0.78,-0.001370332,-0.04932113,0.9942296,-7.028907,-560.9479,-218.8528,-0.1620831,0.6498365,-0.01050651,28.99967,53.94524,0,0,0
158,0.785,-0.00171865,-0.04989758,0.9943534,11.97712,-568.2499,-201.7837,-0.1580148,0.6480381,-0.01284568,29.00454,53.94189,0,0,0
159,0.79,-0.003258183,-0.05017371,0.9940646,0.8916387,-554.1527,-246.6835,-0.1560816,0.652838,-0.01950955,28.9981,53.91637,0,0,0
160,0.795,-0.00417249,-0.0502226,0.9969199,58.3217,-550.621,-170.2666,-0.1609495,0.6552693,-0.01976906,28.9922,53.89086,0,0,0
161,0.8,-0.005539132,-0.04976759,0.9969334,99.55877,-491.6965,-258.092,-0.163583,0.6558394,-0.0150074,28.98698,53.86575,0,0,0
162,0.805,-0.004200491,-0.04910031,0.9945524,47.70388,-546.0181,-254.5059,-0.1564621,0.6551528,-0.01254958,28.98254,53.84138,0,0,0
163,0.81,-0.004675291,-0.05129607,0.9932714,72.09036,-528.2348,-236.5413,-0.150079,0.6573398,-0.01200562,28.97896,53.81809,0,0,0
164,0.815,-0.002665281,-0.0509335,0.9964276,118.4319,-606.4321,-292.7683,-0.1536556,0.6572201,-0.009484832,28.9763,53.79613,0,0,0
165,0.82,-0.002130016,-0.0528547,0.9992182,51.91297,-581.5907,-272.6812,-0.1605823,0.6558386,-0.007504275,28.97459,53.77571,0,0,0
166,0.825,-0.0007460036,-0.05085486,0.9975053,86.85674,-628.8185,-270.1849,-0.159423,0.6521853,-0.009148378,28.97387,53.75704,0,0,0
167,0.83,-0.002425133,-0.0514255,0.9971929,40.49738,-528.3444,-171.4675,-0.1545801,0.6513369,-0.01050465,28.97412,53.74024,0,0,0
168,0.835,-0.000285181,-0.04960186,0.9944558,71.96627,-599.7598,-204.6077,-0.1541336,0.6507447,-0.007554156,28.97535,53.72543,0,0,0
169,0.84,-0.005034373,-0.05258694,1.001771,123.621,-598.7372,-208.8357,-0.1560799,0.6513366,-0.004503116,28.9775,53.71268,0,0,0
170,0.845,-0.002756661,-0.04990821,1.000055,77.64539,-598.1465,-238.1129,-0.1532329,0.649273,-0.006361667,28.98054,53.70199,0,0,0
171,0.85,-0.006952683,-0.05127988,1.00393,12.93396,-580.9791,-168.4168,-0.150079,0.6483357,-0.01050583,28.98441,53.69334,0,0,0
172,0.855,-0.004318558,-0.04893363,0.9962321,-38.17924,-638.9423,-190.7648,-0.1533481,0.6479581,-0.01218996,28.98901,53.68665,0,0,0
173,0.86,-0.006074901,-0.04958768,1.001106,31.64222,-534.9409,-209.3769,-0.1605827,0.6513375,-0.01350836,28.99424,53.68176,0,0,0
174,0.865,-0.0039017,-0.05081443,1.000332,33.95494,-593.9131,-256.6683,-0.1621696,0.6538346,-0.01861417,28.99995,53.67848,0,0,0
175,0.87,-0.006189587,-0.0517874,1.004477,92.80931,-611.1881,-297.168,-0.1575808,0.6558388,-0.02401063,28.99285,53.65212,0,0,0
176,0.875,-0.003366498,-0.05157045,1.001059,20.51508,-650.8516,-227.8806,-0.1526776,0.6541889,-0.02093073,28.98623,53.62745,0,0,0
177,0.88,-0.004143974,-0.05134594,0.9998208,18.96997,-557.439,-227.0098,-0.1515782,0.6528373,-0.0090043,28.98025,53.60474,0,0,0
178,0.885,-0.00209787,-0.05181035,1.000167,23.33457,-635.8043,-239.4525,-0.1511334,0.6504219,-0.0004611952,28.97501,53.58422,0,0,0
179,0.89,-0.0043145,-0.05223438,1.002433,7.490998,-579.9617,-235.5343,-0.150078,0.6498358,-0.006005073,28.97062,53.56607,0,0,0
180,0.895,-0.001906177,-0.05140008,0.9989758,18.54506,-596.2625,-255.6478,-0.1499724,0.6477301,-0.01889264,28.96715,53.55039,0,0,0
181,0.9,-0.005750429,-0.0500434,0.999428,104.9179,-553.6227,-205.1427,-0.1530792,0.6468349,-0.02250968,28.96464,53.5373,0,0,0
182,0.905,-0.00644064,-0.05084715,0.9942589,18.69835,-591.3027,-191.7886,-0.1552671,0.6461236,-0.01330022,28.96314,53.52682,0,0,0
183,0.91,-0.007819923,-0.05137181,0.9991309,42.32367,-517.397,-228.0486,-0.1530788,0.649837,-0.006004894,28.96266,53.51896,0,0,0
184,0.915,-0.006292649,-0.05075258,0.9974273,74.19579,-583.8676,-257.3758,-0.1487821,0.6538894,-0.011313,28.96322,53.51372,0,0,0
185,0.92,-0.006218962,-0.0518687,0.9993418,98.16093,-558.4102,-279.4235,-0.1500787,0.6573396,-0.02101051,28.96481,53.51104,0,0,0
186,0.925,-0.003296923,-0.04942245,0.9929255,33.68192,-592.3123,-290.1142,-0.1560947,0.6558679,-0.02259235,28.96737,53.51082,0,0,0
187,0.93,-0.003779167,-0.0503998,0.9953854,73.50851,-601.6294,-284.2487,-0.1590817,0.6543382,-0.01800931,28.97089,53.51297,0,0,0
188,0.935,-0.0009571368,-0.05066718,0.9951705,50.44061,-571.7347,-227.825,-0.1556526,0.6525176,-0.01643553,28.97527,53.5173,0,0,0
189,0.94,-0.0008146758,-0.05122596,0.9973299,67.17731,-612.1234,-249.2502,-0.1545811,0.6528375,-0.01800853,28.98042,53.52357,0,0,0
190,0.945,0.001051403,-0.05100893,0.9945909,82.05058,-584.8529,-236.5425,-0.1597653,0.6514332,-0.01635176,28.98623,53.53159,0,0,0
191,0.95,4.285875e-05,-0.04967076,0.9937176,69.74445,-603.9955,-211.8135,-0.1635828,0.6513369,-0.0120066,28.98082,53.51926,0,0,0
192,0.955,-0.00157982,-0.05043704,0.9954674,92.12531,-571.9601,-183.1435,-0.1579521,0.650573,-0.01124852,28.97458,53.50583,0,0,0
193,0.96,-0.0005910445,-0.04865719,0.996855,42.96325,-623.5583,-250.3114,-0.1500782,0.6513369,-0.01500796,28.96911,53.49429,0,0,0
194,0.965,-0.005489542,-0.05034828,0.9999983,36.49902,-587.5275,-243.1297,-0.1493884,0.6505266,-0.01773387,28.96453,53.48483,0,0,0
195,0.97,-0.002995256,-0.04809038,0.9932906,71.08213,-609.9451,-245.9982,-0.1545799,0.6513367,-0.01650814,28.96094,53.47762,0,0,0
196,0.975,-0.007329233,-0.05015596,0.997897,85.14117,-532.4565,-212.4669,-0.156485,0.6506863,-0.01398277,28.9584,53.47276,0,0,0
197,0.98,-0.00509159,-0.04881296,0.9948201,29.50726,-591.5779,-248.3251,-0.1545799,0.6498357,-0.01350738,28.95695,53.47033,0,0,0
198,0.985,-0.008107249,-0.05216739,1.000106,4.592247,-561.3954,-216.1177,-0.1532374,0.6465894,-0.01498323,28.95662,53.47039,0,0,0
199,0.99,-0.001692947,-0.05048456,0.994705,-29.57078,-660.3026,-264.9058,-0.1545803,0.6468354,-0.01650834,28.95742,53.47291,0,0,0
200,0.995,-0.004316961,-0.05204659,0.9993513,45.09669,-589.3668,-245.8918,-0.1559861,0.6492203,-0.01657589,28.95934,53.47787,0,0,0
201,1,-0.0003374143,-0.05082486,0.9954349,-27.72037,-678.5755,-204.9251,-0.1575811,0.6528366,-0.01500712,28.96234,53.48521,0,0,0
202,1.005,-0.004127764,-0.05235736,1.002273,35.85829,-543.3882,-219.6763,-0.1578621,0.6503182,-0.0125137,28.96637,53.49482,0,0,0
203,1.01,0.0008666703,-0.05192083,0.9998333,57.13272,-622.4036,-226.3111,-0.1545789,0.645334,-0.01050586,28.97138,53.5066,0,0,0
204,1.015,-0.003061277,-0.05104128,1.003101,47.44493,-542.4722,-206.0527,-0.1483021,0.6419303,-0.01058897,28.97726,53.52031,0,0,0
205,1.02,-0.002335676,-0.04973421,0.9976732,-7.932034,-619.7521,-192.5807,-0.1470782,0.6468354,-0.01350763,28.9839,53.53573,0,0,0
206,1.025,-0.006672828,-0.05189663,1.003537,85.00873,-562.1993,-177.2048,-0.1538144,0.652266,-0.01711733,28.99115,53.55259,0,0,0
207,1.03,-0.00411421,-0.04928841,1.00016,39.45892,-572.8745,-196.2733,-0.1620832,0.6528363,-0.01800867,28.9886,53.55149,0,0,0
208,1.035,-0.007795105,-0.05185013,1.004768,11.76408,-577.0526,-249.9207,-0.1627129,0.6462955,-0.01569018,28.98363,53.54614,0,0,0
209,1.04,-0.005501982,-0.051135,0.9982244,51.79505,-566.2674,-279.5536,-0.1575811,0.6438339,-0.01350699,28.97933,53.54221,0,0,0
210,1.045,-0.005832292,-0.05239644,1.002576,38.36382,-536.6932,-264.1066,-0.1536681,0.6461791,-0.01338098,28.97577,53.53988,0,0,0
211,1.05,-0.004494464,-0.0495714,0.9999634,-25.32769,-607.1345,-262.0129,-0.1545799,0.6498359,-0.01350677,28.97306,53.53925,0,0,0
212,1.055,-0.004830433,-0.05098521,1.00481,98.44102,-565.2192,-287.5378,-0.1559821,0.6479679,-0.01231827,28.97125,53.54041,0,0,0
213,1.06,-0.003210084,-0.05136288,1.000244,74.12418,-574.8915,-297.801,-0.1545784,0.6483366,-0.01200707,28.97037,53.54339,0,0,0
214,1.065,-0.003595527,-0.05092789,0.9998551,51.37817,-578.938,-237.8237,-0.1494517,0.6523339,-0.01454879,28.97045,53.54821,0,0,0
215,1.07,-0.004131367,-0.05126403,0.9980156,96.62421,-577.8896,-252.2949,-0.1440749,0.6573396,-0.01800931,28.9715,53.55486,0,0,0
216,1.075,-0.003822755,-0.05233918,0.9987103,112.9582,-584.1157,-202.4238,-0.1421889,0.6554987,-0.01914552,28.97351,53.56328,0,0,0
217,1.08,-0.004494958,-0.05120089,1.000913,58.40245,-528.9962,-218.7845,-0.1470778,0.6543397,-0.01800867,28.97644,53.57343,0,0,0
218,1.085,-0.003030492,-0.04923495,0.9963203,-6.307117,-591.5004,-228.402,-0.1548596,0.6574138,-0.01617069,28.98027,53.58521,0,0,0
219,1.09,-0.006658535,-0.05098113,0.9989403,74.53023,-546.4675,-245.8589,-0.1590814,0.6633418,-0.01350591,28.98493,53.59851,0,0,0
220,1.095,-0.003228846,-0.04734896,0.9938293,172.1621,-562.8445,-253.1782,-0.1565642,0.6612118,-0.00930537,28.99034,53.61319,0,0,0
221,1.1,-0.005210714,-0.05072463,1.001175,173.4365,-543.9172,-235.3592,-0.1530798,0.6543375,-0.006004178,28.99641,53.62907,0,0,0
222,1.105,0.001159742,-0.04885996,0.9943341,40.01656,-603.9597,-238.6388,-0.1534913,0.6477809,-0.007400738,29.00299,53.6459,0,0,0
223,1.11,-0.002127327,-0.05239474,0.9978986,53.14745,-563.5908,-274.609,-0.1575819,0.6483366,-0.01350763,29.00116,53.64712,0,0,0
224,1.115,0.001161241,-0.04699057,0.9920385,45.405,-612.3069,-275.3672,-0.1604169,0.6515861,-0.01880258,28.99535,53.64098,0,0,0
225,1.12,-0.004841527,-0.05200028,0.9981036,70.93904,-470.8247,-210.5811,-0.1605818,0.6573402,-0.01800781,28.99012,53.63599,0,0,0
226,1.125,-0.0001857636,-0.05059896,0.9943204,72.13962,-583.7372,-173.8431,-0.1574409,0.6598798,-0.01208241,28.9856,53.6324,0,0,0
227,1.13,-0.003573658,-0.05093108,0.9985653,75.70049,-479.5045,-175.0647,-0.1515766,0.6588393,-0.007504883,28.98188,53.63041,0,0,0
228,1.135,-0.001782973,-0.05047519,0.9934295,74.09241,-578.5565,-178.1793,-0.1442189,0.6526853,-0.008675131,28.97903,53.63022,0,0,0
229,1.14,-0.006469132,-0.05165091,0.9982243,58.6092,-526.6819,-233.1299,-0.141075,0.6498364,-0.01350749,28.97713,53.63197,0,0,0
230,1.145,-0.003331741,-0.05046562,0.9978605,33.70522,-606.2438,-303.8802,-0.1449164,0.6499451,-0.01673695,28.9762,53.63571,0,0,0
231,1.15,-0.006655359,-0.05061293,1.001215,52.92442,-585.1935,-264.3515,-0.1530799,0.6513361,-0.01650829,28.97626,53.64155,0,0,0
232,1.155,-0.004122312,-0.04997932,0.9964504,26.02128,-571.5344,-217.5861,-0.1579614,0.6482596,-0.01502789,28.97731,53.64946,0,0,0
233,1.16,-0.004214861,-0.049844,0.9982675,74.94042,-560.9066,-230.4292,-0.1575813,0.6468351,-0.01500851,28.97935,53.65943,0,0,0
234,1.165,-0.003247798,-0.05029059,0.9972365,0.5299368,-576.3251,-267.7122,-0.1552611,0.6474507,-0.01694232,28.98234,53.67141,0,0,0
235,1.17,-0.002496913,-0.05114627,0.9999927,69.99893,-585.9146,-292.7744,-0.1560812,0.6498361,-0.01950984,28.98623,53.68524,0,0,0
236,1.175,-0.003125273,-0.0504294,0.9982811,8.227679,-560.053,-256.2498,-0.1586253,0.6486645,-0.02027231,28.99094,53.70077,0,0,0
237,1.18,-0.00193051,-0.05149981,0.9996129,74.34816,-597.8835,-239.9236,-0.1590808,0.6498374,-0.01800881,28.99638,53.71777,0,0,0
238,1.185,-0.001839769,-0.05006132,0.9993998,137.1218,-588.1852,-257.1382,-0.1548781,0.6531479,-0.01493562,29.00244,53.73595,0,0,0
239,1.19,-0.002222241,-0.05094449,1.000978,46.8097,-645.2339,-237.5176,-0.1500781,0.6573392,-0.01500851,29.00161,53.74131,0,0,0
240,1.195,-0.004630614,-0.05124627,1.002674,57.71942,-581.6001,-158.6125,-0.1491157,0.6555892,-0.01804668,28.99539,53.73653,0,0,0
241,1.2,-0.004481348,-0.05074448,1.000972,-0.9935868,-617.692,-211.843,-0.1530794,0.6528369,-0.01950934,28.9898,53.73273,0,0,0
242,1.205,-0.007609271,-0.05077903,0.9990869,71.02006,-573.0709,-247.7366,-0.1561325,0.6497989,-0.01724468,28.98495,53.73002,0,0,0
243,1.21,-0.005692363,-0.05020782,0.9987997,51.07214,-628.4496,-274.4593,-0.1545792,0.6483353,-0.01500826,28.98096,53.72849,0,0,0
244,1.215,-0.006173328,-0.05289113,1.002813,63.99986,-565.8369,-250.5048,-0.1503569,0.6455092,-0.0160081,28.97791,53.72821,0,0,0
245,1.22,-0.005616927,-0.04875464,1.000936,109.7447,-642.1738,-219.7693,-0.1500786,0.6483378,-0.01800906,28.97582,53.72913,0,0,0
246,1.225,-0.007094013,-0.05111391,1.002941,53.12444,-538.8716,-264.2808,-0.1536131,0.6557001,-0.01775734,28.97476,53.7313,0,0,0
247,1.23,-0.0045454,-0.05003811,0.9973158,48.28356,-578.5721,-295.1969,-0.1560802,0.6633416,-0.01650854,28.97473,53.73466,0,0,0
248,1.235,-0.006717846,-0.05198276,1.002316,-20.07417,-582.4448,-276.4497,-0.1543299,0.6612092,-0.01642154,28.97573,53.73914,0,0,0
249,1.24,-0.002822581,-0.05129702,0.9984449,63.20802,-613.6041,-261.7052,-0.1530794,0.6543372,-0.01650829,28.97776,53.74472,0,0,0
250,1.245,-0.004855582,-0.05186782,1.000146,94.29235,-538.2112,-282.0763,-0.1542696,0.6478269,-0.01544065,28.98079,53.75131,0,0,0
251,1.25,-0.003212336,-0.04923099,0.9941749,19.52585,-574.7474,-273.7463,-0.1545787,0.6468341,-0.01500801,28.98476,53.75884,0,0,0
252,1.255,-0.005115066,-0.04962178,0.996323,43.14777,-532.5216,-216.0806,-0.1505388,0.6451086,-0.01620687,28.98961,53.76722,0,0,0
253,1.26,-0.002381111,-0.04953244,0.9957595,-42.37585,-621.6745,-248.2917,-0.1470768,0.643834,-0.01650779,28.99524,53.77634,0,0,0
254,1.265,-0.004714136,-0.0502477,0.9976766,51.21271,-570.0524,-226.1211,-0.1480691,0.643647,-0.01419241,29.00154,53.78607,0,0,0
255,1.27,-0.001443434,-0.04977265,0.9940749,21.09551,-600.3307,-280.9055,-0.1515786,0.6498381,-0.01200621,29.00251,53.78535,0,0,0
256,1.275,-0.003961846,-0.0505243,0.993322,85.27853,-493.6658,-278.4545,-0.1526636,0.656935,-0.01207061,28.99665,53.77158,0,0,0
257,1.28,-0.001793082,-0.05118318,0.9932885,122.3813,-560.2582,-243.095,-0.1530797,0.661841,-0.01200546,28.99147,53.7588,0,0,0
258,1.285,-0.002211875,-0.04991565,0.9959047,81.44091,-589.1096,-212.8001,-0.1546911,0.6590471,-0.009469269,28.9871,53.74743,0,0,0
259,1.29,-0.0007572392,-0.0499028,0.9943635,15.63001,-657.9498,-193.8449,-0.15608,0.6543382,-0.007505133,28.98363,53.73783,0,0,0
260,1.295,-0.003648167,-0.0519509,0.9952343,34.14707,-585.0151,-230.1479,-0.1539658,0.6507101,-0.009958459,28.98116,53.73032,0,0,0
261,1.3,-0.002260874,-0.05098605,0.9920098,21.90926,-571.2314,-258.6389,-0.1515789,0.6528379,-0.01500776,28.97974,53.72522,0,0,0
262,1.305,-0.004471505,-0.0512135,0.996559,58.00776,-619.2964,-221.1115,-0.152106,0.6544029,-0.01709536,28.9794,53.72273,0,0,0
263,1.31,-0.003974246,-0.04910071,0.9963328,51.91585,-595.0194,-201.8156,-0.1545794,0.6543382,-0.01500776,28.98017,53.72308,0,0,0
264,1.315,-0.005377667,-0.05049904,0.9984486,59.88529,-594.7137,-218.2227,-0.1541104,0.6514575,-0.01308708,28.98204,53.72638,0,0,0
265,1.32,-0.004628553,-0.04788873,0.9952662,31.84471,-619.1486,-246.3146,-0.1515786,0.6528386,-0.01500851,28.985,53.73273,0,0,0
266,1.325,-0.005765628,-0.04995638,0.9988983,48.933,-587.5965,-216.7183,-0.1505892,0.6561134,-0.01867238,28.98902,53.74216,0,0,0
267,1.33,-0.003212667,-0.05141796,0.9964814,5.082397,-589.6289,-254.0472,-0.1530792,0.658839,-0.01950909,28.99402,53.75462,0,0,0
268,1.335,-0.003079039,-0.05160747,1.000673,109.9694,-550.5035,-312.1555,-0.154703,0.6542754,-0.01655158,28.99994,53.76996,0,0,0
269,1.34,-0.00103492,-0.05200424,0.9999703,101.6877,-557.6955,-302.1296,-0.1530787,0.6483361,-0.01350699,29.00666,53.788,0,0,0
270,1.345,-0.001207952,-0.05100367,0.9979479,168.3701,-547.4282,-281.8452,-0.1499094,0.6460828,-0.01306767,29.01405,53.80843,0,0,0
271,1.35,-0.0009149365,-0.05126294,0.9998738,-29.22085,-598.381,-222.0902,-0.1500781,0.6528384,-0.01350624,29.01755,53.82268,0,0,0
272,1.355,-0.001541954,-0.05048437,1.000747,214.9146,-611.3298,-265.195,-0.1525213,0.6585159,-0.0118052,29.01269,53.82234,0,0,0
273,1.36,-0.003327891,-0.05328712,1.003864,-58.24672,-494.7405,-135.7804,-0.1530782,0.6573384,-0.009005157,29.0084,53.82384,0,0,0
274,1.365,-0.00119474,-0.05022457,0.9992405,-63.95066,-597.0847,-187.4317,-0.1493635,0.6495261,-0.008753883,29.00479,53.8272,0,0,0
275,1.37,-0.008911115,-0.05139001,1.000841,55.94556,-516.2648,-243.8386,-0.1470778,0.6483364,-0.01200664,29.00194,53.83239,0,0,0
276,1.375,-0.005750531,-0.04974785,0.9986112,87.29745,-564.779,-211.8691,-0.1509704,0.6527954,-0.01518271,28.99991,53.83927,0,0,0
277,1.38,-0.008451093,-0.05140817,1.003117,120.9971,-472.8389,-234.0883,-0.159082,0.655838,-0.01500726,28.99874,53.84768,0,0,0
278,1.385,-0.004298878,-0.05075108,0.999051,45.64974,-538.3018,-256.9081,-0.1623235,0.6505767,-0.0125156,28.99842,53.85745,0,0,0
279,1.39,-0.007746528,-0.05231732,1.001603,39.52937,-508.3651,-262.9712,-0.15758,0.6483366,-0.01200771,28.99898,53.86832,0,0,0
280,1.395,-0.003322613,-0.04805566,0.9974371,-1.596429,-608.0956,-270.9927,-0.1501447,0.6517766,-0.01576983,29.00038,53.88005,0,0,0
281,1.4,-0.00608627,-0.05035623,1.001608,10.14828,-556.3001,-273.9026,-0.1485778,0.6558383,-0.02101011,29.00261,53.8924,0,0,0
282,1.405,-0.001595239,-0.04960314,1.000218,21.67179,-661.7382,-296.8583,-0.1521478,0.6518639,-0.02199752,29.0056,53.90508,0,0,0
283,1.41,-0.004971798,-0.0512924,1.003653,138.7848,-533.6849,-215.0758,-0.1545789,0.6498374,-0.01650679,29.0093,53.91788,0,0,0
284,1.415,-0.0008739211,-0.05059988,0.9967636,96.03225,-576.6432,-256.9923,-0.1516981,0.6532819,-0.008920656,29.01363,53.93051,0,0,0
285,1.42,-0.00479283,-0.05148552,1.000049,148.2128,-538.238,-210.2949,-0.1485778,0.6573382,-0.006004357,29.01849,53.94275,0,0,0
286,1.425,-0.001475161,-0.05012655,0.9969752,75.1617,-578.4122,-236.3192,-0.1498931,0.6518598,-0.00913836,29.02376,53.95431,0,0,0
287,1.43,-0.004647435,-0.05157086,1.000958,113.118,-486.0343,-197.3301,-0.1545797,0.646836,-0.01350699,29.02636,53.95951,0,0,0
288,1.435,-0.003974151,-0.04812755,0.9935771,22.70976,-577.6302,-174.9179,-0.1559584,0.6490029,-0.01454093,29.01887,53.94465,0,0,0
289,1.44,-0.004894698,-0.05160321,0.9968749,159.8205,-554.9617,-252.6735,-0.1530792,0.655838,-0.01350774,29.01172,53.92916,0,0,0
290,1.445,-0.00119489,-0.0493979,0.99496,77.73405,-576.9477,-229.3625,-0.1504017,0.6540332,-0.01441,29.00505,53.91349,0,0,0
291,1.45,-0.002713609,-0.05006443,0.9994165,30.18356,-574.8214,-258.6005,-0.1530804,0.6483361,-0.01800956,28.99898,53.89801,0,0,0
292,1.455,-0.0002282899,-0.05026356,0.9950181,93.75491,-574.4229,-264.9391,-0.1581727,0.6464982,-0.02060698,28.99361,53.88312,0,0,0
293,1.46,-0.002031039,-0.04887002,0.994871,189.283,-546.0031,-169.6983,-0.1605823,0.6528379,-0.01950959,28.98902,53.86917,0,0,0
294,1.465,-0.002157315,-0.05017518,0.992709,17.38911,-566.6373,-190.9873,-0.1584192,0.6561518,-0.01679138,28.98526,53.85654,0,0,0
295,1.47,-0.001479314,-0.05019692,0.9961289,166.7168,-543.8207,-244.2001,-0.1560802,0.6543377,-0.01650904,28.9824,53.84555,0,0,0
296,1.475,-0.004701809,-0.05232147,0.9989004,99.33409,-545.0916,-221.4944,-0.1548648,0.6493499,-0.01869863,28.98045,53.8365,0,0,0
297,1.48,-0.001133872,-0.05056625,0.9970991,23.8791,-617.5284,-303.2434,-0.1530784,0.6498368,-0.01950909,28.97944,53.82967,0,0,0
298,1.485,-0.006849164,-0.05063178,0.9993401,2.183603,-585.3345,-238.5165,-0.1494605,0.6522977,-0.01684311,28.97937,53.82526,0,0,0
299,1.49,-0.003143699,-0.04810143,0.9946317,64.23121,-673.4473,-279.5673,-0.1485781,0.6543377,-0.01350699,28.98022,53.82341,0,0,0
300,1.495,-0.005931375,-0.05227042,1.002929,82.52802,-559.4827,-272.1284,-0.151891,0.6514702,-0.01261746,28.98196,53.82427,0,0,0
301,1.5,-0.0004543377,-0.05061626,0.9981878,21.17679,-638.3306,-266.8572,-0.1560807,0.6498366,-0.01350699,28.98452,53.82779,0,0,0
302,1.505,-0.005869269,-0.05126867,1.002659,87.55744,-553.368,-201.8467,-0.1566569,0.6498868,-0.01381386,28.98783,53.83392,0,0,0
303,1.51,0.0004992821,-0.04855646,0.9954602,61.74062,-655.8903,-271.7967,-0.1560807,0.6528376,-0.01350699,28.99029,53.83976,0,0,0
304,1.515,-0.004142892,-0.05117369,1.002148,76.45985,-548.2861,-321.4662,-0.1563356,0.6528903,-0.01344664,28.98155,53.82603,0,0,0
305,1.52,0.001372509,-0.05182426,0.9996022,43.29622,-610.7465,-264.2574,-0.1560797,0.6528376,-0.01350749,28.97353,53.81483,0,0,0
306,1.525,-0.003602431,-0.05175061,1.003726,50.70088,-493.9726,-234.7592,-0.1526929,0.6519988,-0.01400794,28.96637,53.80634,0,0,0
307,1.53,-0.0003963639,-0.04900146,0.9978611,37.27922,-596.5128,-204.4527,-0.1500784,0.6528369,-0.01650904,28.96019,53.80066,0,0,0
308,1.535,-0.00704213,-0.04969025,1.001055,66.15442,-509.618,-207.6967,-0.1513219,0.6506528,-0.01978187,28.95509,53.79784,0,0,0
309,1.54,-0.004453802,-0.05037669,0.9988519,123.8322,-557.4144,-210.0487,-0.1545792,0.6483353,-0.01950859,28.95115,53.79778,0,0,0
310,1.545,-0.008355289,-0.05196841,1.003411,67.07169,-519.5527,-182.4577,-0.1539516,0.6459742,-0.01467183,28.9484,53.80039,0,0,0
311,1.55,-0.00643694,-0.04987928,0.9990208,-17.01461,-575.0912,-251.8062,-0.1500776,0.6483371,-0.01050593,28.94689,53.80548,0,0,0
312,1.555,-0.00866835,-0.05228299,1.001288,38.05387,-564.8903,-229.093,-0.1475983,0.6523701,-0.01091744,28.9466,53.81283,0,0,0
313,1.56,-0.005800034,-0.05116928,0.9970549,0.1442684,-560.7291,-220.441,-0.1500784,0.6588415,-0.01350749,28.94754,53.82221,0,0,0
314,1.565,-0.003574579,-0.05096642,1.001153,90.96609,-541.1041,-247.1096,-0.1536273,0.6624284,-0.01498303,28.94968,53.83334,0,0,0
315,1.57,-0.004698943,-0.0505809,1.000069,104.7671,-524.8086,-293.1487,-0.1545797,0.6633413,-0.01650879,28.95295,53.84591,0,0,0
316,1.575,-0.003115799,-0.05040921,0.9998496,131.5072,-569.988,-260.2179,-0.1529819,0.6583862,-0.01868688,28.95728,53.85964,0,0,0
317,1.58,-0.001731381,-0.04995584,0.9960511,47.96694,-558.7353,-255.4953,-0.1530792,0.6528369,-0.01800781,28.96258,53.87418,0,0,0
318,1.585,-0.00220656,-0.05040045,0.9977697,99.38948,-604.3478,-205.3711,-0.1540858,0.6478738,-0.0129677,28.96871,53.8892,0,0,0
319,1.59,-0.002820467,-0.04999645,0.9981385,108.174,-561.1652,-197.9875,-0.1530787,0.6483364,-0.009005658,28.97552,53.90436,0,0,0
320,1.595,-0.00190193,-0.04988255,0.9982038,117.7048,-551.9254,-204.6559,-0.1497875,0.650564,-0.01077367,28.96967,53.89482,0,0,0
321,1.6,-0.005363497,-0.05006905,0.9963753,40.56673,-559.2022,-206.8818,-0.1500789,0.6543384,-0.01500751,28.96446,53.88534,0,0,0
322,1.605,-0.004464071,-0.04752595,0.9937028,19.40349,-569.6559,-272.5366,-0.1545747,0.6546365,-0.01583324,28.96002,53.87621,0,0,0
323,1.61,-0.004977482,-0.05007618,0.9970891,61.5825,-561.6102,-226.245,-0.1575803,0.6543384,-0.01350674,28.95642,53.86769,0,0,0
324,1.615,-0.003025144,-0.0485145,0.994601,118.7217,-554.8047,-233.0894,-0.1541242,0.6528583,-0.01189634,28.95375,53.86004,0,0,0
325,1.62,-0.003896548,-0.05149132,0.9973138,134.1084,-538.6855,-310.819,-0.1500789,0.6543387,-0.01200646,28.95205,53.8535,0,0,0
326,1.625,-0.0002040971,-0.04946264,0.9931069,49.79411,-584.1503,-309.8015,-0.1517943,0.6551639,-0.01243246,28.95135,53.8483,0,0,0
327,1.63,-0.002618426,-0.05171894,0.9945048,109.825,-566.79,-261.6384,-0.1575808,0.6558383,-0.01350749,28.95163,53.84466,0,0,0
328,1.635,-0.0003273804,-0.05092737,0.9933704,109.7604,-645.5876,-291.3401,-0.1584135,0.6526667,-0.01553018,28.95292,53.84275,0,0,0
329,1.64,-0.002449463,-0.05134082,0.9982026,91.50281,-517.5463,-267.5966,-0.1530789,0.6498361,-0.01650779,28.9552,53.84276,0,0,0
330,1.645,0.0004505171,-0.05088594,0.9943388,72.59298,-557.0259,-268.8809,-0.1484874,0.6475629,-0.01472049,28.95841,53.8448,0,0,0
331,1.65,-0.002741537,-0.05094332,0.9951463,72.00562,-551.9899,-187.6093,-0.1515799,0.6498366,-0.01200596,28.96251,53.84893,0,0,0
332,1.655,-0.0008634194,-0.0503379,0.9955934,-15.56243,-644.3338,-212.9597,-0.1581788,0.6516951,-0.01074007,28.96744,53.8552,0,0,0
333,1.66,-0.004995349,-0.05008629,0.9996383,22.42387,-564.9546,-179.6671,-0.1605816,0.6528376,-0.01050518,28.97309,53.86356,0,0,0
334,1.665,-0.00357419,-0.04865668,0.9985659,44.14162,-608.7711,-172.7681,-0.156131,0.6513358,-0.009620205,28.97937,53.87387,0,0,0
335,1.67,-0.005347614,-0.04867297,0.9981528,76.94934,-549.222,-215.4007,-0.1515789,0.6528376,-0.009005658,28.98613,53.88596,0,0,0
336,1.675,-0.002964483,-0.04954136,0.9955002,101.1987,-609.5795,-250.9874,-0.1515224,0.6537581,-0.01094454,28.9815,53.8778,0,0,0
337,1.68,-0.005512035,-0.0512754,0.9999723,132.5174,-582.0657,-270.211,-0.1545799,0.6528369,-0.01500776,28.97585,53.8686,0,0,0
338,1.685,-0.001789866,-0.04964927,1.000393,75.17913,-623.9268,-260.0443,-0.1554838,0.6481085,-0.01713747,28.97079,53.86127,0,0,0
339,1.69,-0.002911347,-0.05017915,1.002325,85.09844,-529.4843,-240.6031,-0.1545799,0.6483366,-0.01500726,28.96646,53.85594,0,0,0
340,1.695,-0.00152954,-0.04925323,0.9978405,92.12257,-580.3073,-266.2184,-0.1539572,0.652242,-0.01168189,28.96292,53.85264,0,0,0
341,1.7,-0.003718114,-0.05143476,1.000396,53.23761,-617.1263,-219.7687,-0.1545797,0.6558383,-0.01200696,28.96027,53.85136,0,0,0
342,1.705,-0.004721265,-0.05188592,0.999049,47.80451,-585.1208,-224.7381,-0.1539495,0.6523502,-0.01529988,28.95855,53.85201,0,0,0
343,1.71,-0.005869207,-0.05176118,1.00288,125.7896,-620.8164,-209.179,-0.1530799,0.6498368,-0.01650829,28.9578,53.85448,0,0,0
344,1.715,-0.005369907,-0.04951952,0.998917,43.76892,-635.2933,-248.105,-0.1540095,0.6509873,-0.01463929,28.95804,53.8586,0,0,0
345,1.72,-0.006391715,-0.05063984,1.000178,119.5366,-579.9503,-215.9214,-0.1575815,0.6543369,-0.01500901,28.95927,53.86419,0,0,0
346,1.725,-0.005605641,-0.04988984,0.9983504,94.48986,-585.5612,-169.3672,-0.1594674,0.650594,-0.0196468,28.96148,53.87106,0,0,0
347,1.73,-0.006319855,-0.05019384,1.001239,58.13306,-590.1566,-209.1339,-0.1575808,0.645335,-0.02250989,28.96464,53.87899,0,0,0
348,1.735,-0.006318456,-0.05056955,1.001905,65.45894,-588.7859,-206.8304,-0.1537501,0.6446679,-0.01843375,28.96871,53.88775,0,0,0
349,1.74,-0.004854355,-0.05010143,0.9978986,27.30583,-607.1935,-244.7899,-0.1530797,0.6528386,-0.01200671,28.9736,53.89711,0,0,0
350,1.745,-0.005766976,-0.05092313,0.9980097,25.56501,-563.9317,-182.133,-0.155074,0.6589841,-0.01084474,28.97922,53.90682,0,0,0
351,1.75,-0.003079689,-0.0496057,0.9970723,68.76834,-572.3666,-250.3445,-0.15608,0.658839,-0.01500826,28.98545,53.91663,0,0,0
352,1.755,-0.003046088,-0.05123958,0.9999782,37.8676,-537.2984,-288.171,-0.1535059,0.6519777,-0.01841249,28.98188,53.90732,0,0,0
353,1.76,0.0009929454,-0.04940704,0.996024,94.82532,-612.1625,-264.0445,-0.1515791,0.6483359,-0.01800856,28.97593,53.89266,0,0,0
354,1.765,-0.002816254,-0.0511919,0.9951296,147.0762,-546.9016,-205.5536,-0.1529854,0.6483757,-0.01547932,28.97069,53.87844,0,0,0
355,1.77,-0.001099163,-0.05004323,0.9937391,152.9607,-611.4753,-203.1789,-0.1560805,0.6513364,-0.01350774,28.96626,53.86504,0,0,0
356,1.775,-0.004850221,-0.05153251,0.9968759,99.26883,-495.6926,-202.6087,-0.1562091,0.6501595,-0.01412496,28.96276,53.85279,0,0,0
357,1.78,-0.001517376,-0.05034931,0.9962153,33.41365,-635.5107,-239.6998,-0.1545802,0.6483359,-0.01800956,28.96024,53.84205,0,0,0
358,1.785,-0.005351208,-0.04935378,0.997366,41.44131,-554.9982,-252.1179,-0.1541232,0.6474781,-0.02157366,28.95877,53.83311,0,0,0
359,1.79,-0.002715235,-0.049464,0.9948918,66.24378,-632.2249,-242.5331,-0.1560807,0.6513369,-0.01950834,28.95837,53.82626,0,0,0
360,1.795,-0.004746297,-0.05018975,0.9983984,26.34274,-578.5597,-250.3017,-0.157079,0.652945,-0.01262073,28.95906,53.82178,0,0,0
361,1.8,-0.00157006,-0.04903234,0.9962867,-2.007113,-647.024,-278.3192,-0.15608,0.6513361,-0.00900641,28.96081,53.81987,0,0,0
362,1.805,-0.003625966,-0.05069217,1.000458,20.1699,-564.5996,-251.2327,-0.1534502,0.6463874,-0.01318141,28.96364,53.82074,0,0,0
363,1.81,-0.00120453,-0.05066295,0.9949827,-26.32174,-621.2336,-238.2392,-0.1515784,0.6468366,-0.01950934,28.96748,53.82446,0,0,0
364,1.815,-0.004510203,-0.05057378,0.9971265,91.83473,-538.4482,-224.6225,-0.1508374,0.6518496,-0.01993003,28.97227,53.83112,0,0,0
365,1.82,-0.0002142695,-0.04927869,0.994209,57.02369,-592.8827,-255.5192,-0.1515779,0.6588398,-0.01500751,28.97794,53.84068,0,0,0
366,1.825,-0.002766208,-0.05197768,1.000672,52.95728,-536.8389,-204.0447,-0.1511787,0.6583072,-0.01179388,28.98437,53.85305,0,0,0
367,1.83,-0.001426601,-0.04989195,0.99624,29.92532,-575.7856,-256.3337,-0.1485766,0.6528372,-0.01350724,28.99144,53.86799,0,0,0
368,1.835,-0.003227393,-0.05080963,1.000391,8.288625,-595.9229,-210.28,-0.1453617,0.647135,-0.01595361,28.99018,53.86897,0,0,0
369,1.84,-0.002943843,-0.04917693,0.9958885,79.42239,-605.2902,-243.6831,-0.1470783,0.6498371,-0.01500726,28.98502,53.8641,0,0,0
370,1.845,-0.003472559,-0.05244246,1.001371,44.39174,-577.1074,-274.599,-0.1538447,0.6545838,-0.01231739,28.98052,53.86169,0,0,0
371,1.85,-0.00274582,-0.05150991,0.9996113,131.9826,-557.2543,-261.245,-0.1605826,0.6558383,-0.01200646,28.97678,53.86179,0,0,0
372,1.855,-0.005710271,-0.05228077,1.001409,135.8226,-545.9495,-239.4177,-0.1612982,0.6505774,-0.01371386,28.9739,53.86435,0,0,0
373,1.86,-0.004644098,-0.05195007,1.000237,111.6904,-581.8218,-234.7759,-0.1575803,0.6498379,-0.01350624,28.97192,53.86925,0,0,0
374,1.865,-0.004451247,-0.05099604,1.002456,114.9736,-588.1414,-253.7767,-0.1529148,0.6546283,-0.01043369,28.97089,53.87633,0,0,0
375,1.87,-0.00511133,-0.05209037,1.004784,45.27966,-510.0159,-236.2606,-0.1500779,0.6603401,-0.00900616,28.97084,53.88532,0,0,0
376,1.875,-0.005075643,-0.04903171,1.002809,60.66515,-539.8207,-202.1902,-0.1491727,0.657141,-0.01263887,28.97176,53.89596,0,0,0
377,1.88,-0.00811394,-0.04937647,1.002568,60.09787,-513.9731,-201.784,-0.1515791,0.6513367,-0.01800856,28.97364,53.90793,0,0,0
378,1.885,-0.005717669,-0.04994595,0.9979277,21.22197,-623.2123,-236.9079,-0.1549219,0.6478692,-0.0184588,28.97647,53.92089,0,0,0
379,1.89,-0.008746878,-0.05183808,1.002465,110.6384,-561.6411,-243.6983,-0.1560805,0.6498361,-0.01350699,28.98018,53.93452,0,0,0
380,1.895,-0.004190898,-0.04887084,1.000407,34.68523,-671.8513,-221.0885,-0.1543055,0.6499585,-0.0102098,28.98472,53.94842,0,0,0
381,1.9,-0.007700682,-0.05241418,1.003237,43.09897,-552.3926,-273.123,-0.1545805,0.6498359,-0.01350727,28.99,53.96226,0,0,0
382,1.905,-0.002235431,-0.04979162,0.9970867,27.45624,-646.4129,-279.7392,-0.1572378,0.6484295,-0.01794314,28.99591,53.97569,0,0,0
383,1.91,-0.005691822,-0.05043029,1.000187,66.23444,-553.0042,-277.5362,-0.1575797,0.6483359,-0.01500576,29.00232,53.98832,0,0,0
384,1.915,0.0003420882,-0.05152815,0.9964558,92.42329,-645.6212,-209.1099,-0.1520688,0.6473963,-0.006372632,29.00173,53.98625,0,0,0
385,1.92,-0.003863456,-0.05245785,1.000732,-179.8387,-531.1398,-149.7177,-0.1470773,0.6513384,-0.003003807,28.99561,53.97218,0,0,0
386,1.925,0.0006423586,-0.05080654,0.9954545,-165.8345,-604.8274,-177.524,-0.1485558,0.6568873,-0.009241157,28.98999,53.95733,0,0,0
387,1.93,-0.003368163,-0.05155952,0.9980859,127.7136,-525.4915,-198.3119,-0.1545797,0.6603401,-0.01650779,28.98497,53.94202,0,0,0
388,1.935,-0.0009355625,-0.05062445,0.9936105,87.43014,-636.0929,-234.689,-0.1565067,0.6558649,-0.01616253,28.98066,53.92657,0,0,0
389,1.94,-0.004745978,-0.0533792,0.9995891,169.4873,-517.9612,-171.649,-0.1530792,0.6513364,-0.01200721,28.97714,53.91134,0,0,0
390,1.945,-0.002924747,-0.04904449,0.9946092,74.30453,-613.9557,-143.5117,-0.1500956,0.6486734,-0.01271732,28.97444,53.89666,0,0,0
391,1.95,-0.005118901,-0.04932007,0.9972009,99.75574,-596.7612,-181.5634,-0.1530799,0.6483353,-0.01800881,28.97262,53.88288,0,0,0
392,1.955,-0.004817492,-0.04839077,0.9921462,29.49955,-564.7576,-209.0431,-0.1575856,0.6459678,-0.01968195,28.97168,53.87035,0,0,0
393,1.96,-0.006766065,-0.05011771,0.9984226,43.41988,-589.7351,-276.731,-0.1575808,0.6483371,-0.01500751,28.97164,53.85939,0,0,0
394,1.965,-0.003594634,-0.04968244,0.9953229,58.19149,-616.4008,-281.2149,-0.1533047,0.6540503,-0.01082804,28.97248,53.85032,0,0,0
395,1.97,-0.00513693,-0.04896933,0.9984221,95.90171,-557.4097,-294.4924,-0.1530812,0.6588395,-0.01350824,28.97419,53.8434,0,0,0
396,1.975,-0.003134857,-0.04932771,0.9939323,47.53736,-599.958,-310.3776,-0.1590748,0.655015,-0.01959979,28.97672,53.83886,0,0,0
397,1.98,-0.001965049,-0.04805317,0.9968064,100.0053,-582.0875,-253.0145,-0.1650844,0.6513384,-0.02100936,28.98002,53.83687,0,0,0
398,1.985,-0.002949168,-0.0505885,0.9971541,58.07119,-546.7686,-291.7241,-0.1639702,0.6532031,-0.01630137,28.984,53.83752,0,0,0
399,1.99,-0.0005288289,-0.05016957,0.9982437,26.37795,-566.4175,-239.8582,-0.1590818,0.6603403,-0.01200621,28.98855,53.84082,0,0,0
400,1.995,-0.00154091,-0.05039756,0.9977685,67.79849,-529.3306,-272.9759,-0.1560861,0.6600227,-0.01180272,28.98767,53.8358,0,0,0
401,2,0.0002480522,-0.05099068,0.9946562,167.829,-600.2534,-272.2974,-0.1560802,0.6528369,-0.01200571,28.9799,53.81986,0,0,0
402,2.005,-0.001250948,-0.05312342,0.9992601,110.2999,-535.691,-216.1825,-0.1549677,0.6453736,-0.009810539,28.97274,53.80696,0,0,0
403,2.01,-6.613536e-05,-0.05037402,0.9979644,101.1774,-604.4764,-190.5924,-0.1530789,0.6483371,-0.009005408,28.96634,53.79738,0,0,0
404,2.015,-0.004338435,-0.05283812,1.003304,119.784,-519.9468,-175.2675,-0.1517408,0.6552423,-0.0117217,28.96082,53.79127,0,0,0
405,2.02,-0.001232342,-0.05075155,0.9962434,107.6718,-562.947,-172.7691,-0.1515786,0.6588393,-0.01350699,28.95627,53.78872,0,0,0
406,2.025,-0.006251496,-0.05152947,1.000357,46.84486,-517.0133,-224.0313,-0.1514059,0.6537656,-0.0122841,28.95278,53.78971,0,0,0
407,2.03,-0.004612757,-0.05071725,0.999051,99.36228,-604.9124,-252.9855,-0.1530797,0.6498368,-0.01350799,28.95038,53.79414,0,0,0
408,2.035,-0.00727521,-0.05130664,1.004802,98.62678,-520.4586,-236.9844,-0.1555964,0.6501887,-0.01860532,28.94913,53.80185,0,0,0
409,2.04,-0.005813303,-0.04975915,1.001333,120.2356,-612.2469,-278.756,-0.15608,0.6543379,-0.01950809,28.94903,53.81262,0,0,0
410,2.045,-0.00806177,-0.04914265,1.001637,90.09251,-610.2386,-265.8346,-0.1529919,0.6536654,-0.01267971,28.95008,53.82618,0,0,0
411,2.05,-0.004737144,-0.05043768,1.000127,25.33772,-648.7441,-237.9689,-0.1515794,0.6513369,-0.007504883,28.95226,53.8422,0,0,0
412,2.055,-0.008861232,-0.05036925,1.002429,83.1338,-579.5417,-264.8215,-0.1542454,0.6492906,-0.01029858,28.95554,53.86032,0,0,0
413,2.06,-0.004668564,-0.0497863,1.001336,133.1106,-629.1775,-288.3318,-0.1575805,0.6513371,-0.01350624,28.95983,53.88013,0,0,0
414,2.065,-0.005667429,-0.05051978,1.000519,99.73025,-555.6759,-268.2057,-0.1558787,0.6520554,-0.01060299,28.96506,53.90122,0,0,0
415,2.07,-0.003886124,-0.05080785,0.996005,-34.36749,-624.358,-308.4466,-0.1515784,0.6528376,-0.00900666,28.97111,53.92313,0,0,0
416,2.075,-0.004671197,-0.05239396,0.9983099,22.30862,-605.9169,-290.2674,-0.1495958,0.6521065,-0.01518111,28.97342,53.9372,0,0,0
417,2.08,-0.002120344,-0.05142993,0.9982002,61.94784,-605.8698,-300.708,-0.1515786,0.6528372,-0.02100936,28.96754,53.93501,0,0,0
418,2.085,-0.001655637,-0.05172023,1.000241,157.6175,-570.826,-278.2312,-0.1531386,0.651153,-0.01775369,28.96242,53.93302,0,0,0
419,2.09,-0.0007174556,-0.05020099,0.9947039,120.4121,-569.7515,-306.4728,-0.1530797,0.6498361,-0.01200721,28.95818,53.93133,0,0,0
420,2.095,-0.002295309,-0.05039866,0.9968196,90.0553,-570.7747,-245.0057,-0.153059,0.648185,-0.01338199,28.9549,53.93009,0,0,0
421,2.1,-0.002455671,-0.04986272,0.9948202,53.70982,-577.3765,-180.0675,-0.156082,0.6498361,-0.01800831,28.95266,53.92939,0,0,0
422,2.105,-0.003429544,-0.05157062,0.9966105,83.6862,-565.6755,-171.7992,-0.1605309,0.6501304,-0.01694412,28.9515,53.92934,0,0,0
423,2.11,-0.002075309,-0.04959248,0.9946017,83.10488,-583.4857,-221.5147,-0.1635834,0.6498364,-0.01200596,28.95145,53.93006,0,0,0
424,2.115,-0.005548501,-0.04987568,0.9934804,126.0519,-553.3283,-218.5179,-0.1615627,0.6482249,-0.009980525,28.9525,53.93164,0,0,0
425,2.12,-0.004879098,-0.04953324,0.9941172,73.60258,-606.3194,-225.6328,-0.1560807,0.6513376,-0.01050568,28.95465,53.93421,0,0,0
426,2.125,-0.004551046,-0.04855148,0.9974675,68.79356,-589.3909,-197.4097,-0.1525387,0.654763,-0.01033913,28.95787,53.93785,0,0,0
427,2.13,-0.00429175,-0.05045927,0.9980687,56.75496,-570.7145,-243.7828,-0.1560815,0.6558387,-0.01200771,28.96211,53.94263,0,0,0
428,2.135,-0.004051055,-0.04831598,0.9964187,66.35136,-564.9095,-257.4316,-0.1614137,0.6520951,-0.01733994,28.96731,53.94862,0,0,0
429,2.14,-0.003519067,-0.05092385,0.9956145,83.25163,-545.8984,-259.4684,-0.1605818,0.6528386,-0.02101011,28.97339,53.95585,0,0,0
430,2.145,-6.454237e-05,-0.0493096,0.9937872,21.4407,-599.8942,-222.3243,-0.1541862,0.6567108,-0.01901419,28.98024,53.96428,0,0,0
431,2.15,-0.002556353,-0.05186123,0.9976562,59.79023,-566.0002,-247.9023,-0.1530806,0.658839,-0.01650911,28.98773,53.97384,0,0,0
432,2.155,-0.0001234922,-0.0509684,0.9962262,114.9047,-614.71,-212.0772,-0.1586058,0.6530697,-0.01814472,28.99278,53.97896,0,0,0
433,2.16,-0.0007660909,-0.0500951,0.9969648,93.45201,-570.5704,-208.1443,-0.1605805,0.6498376,-0.01950837,28.98795,53.966,0,0,0
434,2.165,0.0005550266,-0.05175319,0.9966825,43.01608,-611.9271,-257.4392,-0.1530496,0.6524413,-0.01557675,28.98367,53.95438,0,0,0
435,2.17,-0.003738743,-0.05086986,0.9973393,85.22008,-567.0379,-265.1786,-0.1470784,0.6573383,-0.01050572,28.98005,53.94441,0,0,0
436,2.175,-0.0006816578,-0.04995576,0.9994963,0.472362,-692.6016,-248.4538,-0.1512664,0.6539863,-0.01005559,28.9772,53.93634,0,0,0
437,2.18,-0.004725297,-0.05075798,1.000051,47.11756,-519.8935,-233.1964,-0.1590815,0.6483351,-0.01200596,28.97519,53.93034,0,0,0
438,2.185,-0.003577102,-0.05072854,0.9971356,61.52573,-584.917,-212.6241,-0.1590342,0.6452371,-0.01154926,28.97409,53.9265,0,0,0
439,2.19,-0.005891926,-0.05051619,0.9989626,37.00791,-521.7352,-201.5877,-0.1545804,0.6468341,-0.01050644,28.97395,53.9249,0,0,0
440,2.195,-0.003463239,-0.0500021,1.000393,114.803,-562.445,-227.9788,-0.1542198,0.6452105,-0.01273521,28.97475,53.92555,0,0,0
441,2.2,-0.005034823,-0.05030347,1.00461,116.2921,-569.7396,-213.867,-0.1575803,0.6438342,-0.01650854,28.97654,53.92837,0,0,0
442,2.205,-0.004023827,-0.05130248,1.000379,114.2341,-588.9855,-194.7914,-0.1561724,0.645062,-0.0176171,28.97929,53.9333,0,0,0
443,2.21,-0.009297587,-0.05171793,1.002506,73.92524,-563.3964,-223.4804,-0.1500769,0.6513374,-0.01650829,28.98298,53.94018,0,0,0
444,2.215,-0.005317928,-0.04984027,0.9979982,58.4953,-587.5031,-273.2014,-0.1452479,0.6543073,-0.01570879,28.98755,53.94885,0,0,0
445,2.22,-0.006760595,-0.05273042,1.006706,136.3018,-541.9067,-251.5624,-0.1455763,0.6543384,-0.01500751,28.99295,53.95911,0,0,0
446,2.225,-0.005596257,-0.04991134,1.000708,88.46784,-594.8914,-288.2077,-0.1482043,0.6524677,-0.01356192,28.9991,53.97069,0,0,0
447,2.23,-0.005323944,-0.05198087,1.002172,33.24731,-557.0612,-262.4449,-0.1515789,0.6543382,-0.01350774,29.00586,53.98332,0,0,0
448,2.235,-0.003358715,-0.04888979,0.9969237,-16.58027,-622.2508,-318.6872,-0.1539965,0.6546879,-0.01600332,29.01164,53.99394,0,0,0
449,2.24,-0.004508549,-0.05080166,1.001171,59.81372,-537.99,-263.032,-0.1545797,0.6528372,-0.01800881,29.00606,53.98322,0,0,0
450,2.245,-0.0009455286,-0.05029824,0.9992742,81.05868,-584.1055,-258.8267,-0.1529604,0.6483737,-0.01681692,29.00099,53.97319,0,0,0
451,2.25,-0.001939966,-0.05038441,0.9998184,39.65928,-528.7629,-239.8515,-0.1530802,0.6498379,-0.01500826,28.99656,53.96406,0,0,0
452,2.255,-0.0006058501,-0.04975305,0.9959393,-16.28728,-558.6687,-250.9392,-0.1560568,0.6552874,-0.01591006,28.99289,53.95599,0,0,0
453,2.26,-0.001361817,-0.04967116,0.9943692,72.72086,-574.8059,-182.2386,-0.159081,0.6603395,-0.01800856,28.99004,53.94919,0,0,0
454,2.265,-0.002345213,-0.0502782,0.9973478,48.03805,-582.303,-188.3344,-0.1571181,0.6559032,-0.01719943,28.98808,53.94374,0,0,0
455,2.27,-0.002838524,-0.04952903,0.9969882,83.65172,-621.7644,-220.3543,-0.1515776,0.6483361,-0.01350674,28.98704,53.93975,0,0,0
456,2.275,-0.005602999,-0.05218041,0.9979823,63.39296,-587.3132,-218.9207,-0.1468694,0.6453072,-0.01084029,28.98694,53.93732,0,0,0
457,2.28,-0.003793936,-0.0490023,0.994333,57.38474,-576.0939,-277.5046,-0.1470773,0.6528381,-0.01200746,28.98778,53.93647,0,0,0
458,2.285,-0.007446599,-0.05135215,0.9969871,-54.67737,-556.5812,-220.1882,-0.1504946,0.6587094,-0.01592585,28.98955,53.93727,0,0,0
459,2.29,-0.003742078,-0.05027306,0.9957797,84.78735,-620.1278,-209.1057,-0.1545804,0.6558375,-0.01950959,28.99221,53.93969,0,0,0
460,2.295,-0.00764691,-0.05199268,0.9982504,34.56608,-484.9766,-225.5076,-0.1567083,0.6461077,-0.01980899,28.99574,53.94371,0,0,0
461,2.3,-0.00125318,-0.05125048,0.9943087,68.43387,-638.3104,-339.531,-0.1575815,0.645336,-0.01650804,29.00003,53.94925,0,0,0
462,2.305,-0.005004661,-0.05128995,0.9963476,121.7054,-544.7698,-287.0567,-0.1575573,0.6528799,-0.01302588,29.00504,53.9562,0,0,0
463,2.31,-1.246373e-05,-0.04997905,0.9953135,23.87667,-644.8695,-277.6653,-0.1575808,0.6588385,-0.01350774,29.01062,53.96437,0,0,0
464,2.315,-0.003983907,-0.05180504,1.000762,88.1784,-525.1005,-224.8386,-0.1559691,0.6524812,-0.01690239,29.01666,53.97352,0,0,0
465,2.32,-0.0003544689,-0.04914531,0.9956957,-5.929073,-622.6296,-252.582,-0.1530789,0.6453355,-0.01800831,29.00982,53.95898,0,0,0
466,2.325,-0.00327004,-0.05058521,0.9999671,53.77851,-530.8868,-272.7064,-0.1506936,0.6465663,-0.01492269,29.00344,53.94543,0,0,0
467,2.33,-0.0003017922,-0.04970628,0.9941649,71.41032,-607.3608,-222.0379,-0.1515779,0.6558387,-0.01200671,28.99767,53.93312,0,0,0
468,2.335,-0.004067971,-0.05138495,1.000965,98.37306,-526.9689,-270.7055,-0.1522575,0.6580474,-0.01270112,28.99263,53.92224,0,0,0
469,2.34,-0.0004718639,-0.05074734,0.9979376,-5.193848,-585.7465,-196.1141,-0.1485756,0.6528369,-0.01500826,28.98839,53.91289,0,0,0
470,2.345,-0.004209856,-0.05177987,1.002966,77.12566,-547.6387,-173.8628,-0.1419351,0.6466093,-0.01632667,28.98505,53.90517,0,0,0
471,2.35,-0.003161337,-0.04998701,0.9969689,96.84128,-626.6041,-224.397,-0.1410752,0.6483353,-0.01800982,28.98267,53.89909,0,0,0
472,2.355,-0.00501504,-0.05095525,1.002933,118.5434,-578.0844,-232.7686,-0.1475851,0.6502196,-0.02068887,28.98127,53.89466,0,0,0
473,2.36,-0.004499985,-0.05072937,1.000031,46.18999,-604.3658,-183.3303,-0.1545802,0.6483351,-0.02100961,28.98088,53.89186,0,0,0
474,2.365,-0.006350079,-0.05137752,1.004479,105.1098,-597.2355,-227.9003,-0.1558477,0.64338,-0.01710276,28.98151,53.8906,0,0,0
475,2.37,-0.00522543,-0.05048156,0.9995166,18.15211,-614.7546,-313.3752,-0.1560815,0.6468373,-0.01350774,28.98314,53.89081,0,0,0
476,2.375,-0.006013378,-0.05224493,1.000278,52.87632,-610.5071,-240.1787,-0.1588798,0.6561108,-0.01465256,28.98575,53.89236,0,0,0
477,2.38,-0.005941593,-0.05215501,1.00015,66.89573,-612.4999,-254.0795,-0.1605813,0.6633411,-0.01800881,28.9893,53.89513,0,0,0
478,2.385,-0.005672324,-0.05056062,1.000761,114.1392,-554.0411,-263.8993,-0.1558394,0.6587198,-0.01812105,28.99369,53.89896,0,0,0
479,2.39,-0.005544669,-0.0522312,1.003111,56.51709,-574.3127,-300.4527,-0.1500789,0.6513376,-0.01500751,28.99883,53.90364,0,0,0
480,2.395,-0.003680815,-0.0494042,0.9983817,37.09032,-604.9213,-279.3233,-0.1506601,0.6493479,-0.01284756,29.00461,53.90893,0,0,0
481,2.4,-0.005831793,-0.05056984,1.002064,153.8097,-564.8452,-249.4411,-0.1575827,0.6558389,-0.01350756,28.99915,53.89286,0,0,0
482,2.405,-0.001416644,-0.04976283,0.9970714,1.541651,-604.2125,-266.9828,-0.1628565,0.6584299,-0.0152258,28.99284,53.87471,0,0,0
483,2.41,-0.004378573,-0.05195061,1.001855,7.934745,-530.473,-229.7489,-0.1635837,0.654337,-0.01650825,28.98726,53.85755,0,0,0
484,2.415,-0.001682697,-0.04962987,0.9974548,36.9307,-603.7424,-256.4491,-0.1614385,0.6467791,-0.01663562,28.98255,53.84163,0,0,0
485,2.42,-0.005349294,-0.05154109,0.9973725,127.3022,-525.3867,-260.2573,-0.1590808,0.6468363,-0.0150069,28.97878,53.82723,0,0,0
486,2.425,-0.0006998797,-0.04949272,0.9953573,187.356,-601.5314,-258.3829,-0.1553939,0.6513909,-0.0122378,28.97602,53.81456,0,0,0
487,2.43,-0.00312579,-0.05130032,0.9994959,131.8231,-522.9174,-207.1488,-0.1515784,0.6558389,-0.01050515,28.97432,53.80377,0,0,0
488,2.435,-0.003055318,-0.05092436,0.9960812,99.2086,-566.4199,-233.058,-0.1496452,0.6544147,-0.01000966,28.97369,53.79502,0,0,0
489,2.44,-0.005370408,-0.04963651,0.9945285,76.26807,-546.2526,-217.7978,-0.1515795,0.6543396,-0.009004943,28.97412,53.7884,0,0,0
490,2.445,-0.001929128,-0.05106343,0.9935552,71.49821,-595.745,-207.677,-0.1548887,0.6565074,-0.008077065,28.97563,53.784,0,0,0
491,2.45,-0.004311708,-0.05037095,0.9956589,51.49975,-552.77,-286.3933,-0.1575818,0.6603408,-0.01050669,28.97816,53.78183,0,0,0
492,2.455,-0.002556221,-0.0502622,0.9946037,117.4882,-586.6087,-244.3646,-0.1584707,0.6588037,-0.01561545,28.98167,53.78185,0,0,0
493,2.46,-0.005680691,-0.05033558,0.9965982,154.8338,-557.9473,-250.0081,-0.1590818,0.6558385,-0.01800856,28.98609,53.784,0,0,0
494,2.465,-0.001928367,-0.04938667,0.992058,104.1084,-596.2241,-234.8735,-0.1586418,0.6522754,-0.01562524,28.99133,53.78814,0,0,0
495,2.47,-0.004231067,-0.05004351,0.9966073,132.6813,-539.0046,-235.8128,-0.156079,0.6513374,-0.01350749,28.99727,53.79405,0,0,0
496,2.475,-0.001561136,-0.05029931,0.9952285,106.1205,-609.818,-291.946,-0.1502932,0.6503981,-0.01504105,29.00377,53.80147,0,0,0
497,2.48,-0.002908409,-0.05178827,1.000269,88.60537,-638.9873,-305.9229,-0.1455768,0.6543399,-0.01650779,29.00043,53.79105,0,0,0
498,2.485,-0.001566947,-0.04892528,0.9964755,83.07698,-592.1177,-319.4339,-0.1466999,0.6597731,-0.01426254,28.99463,53.77644,0,0,0
499,2.49,-0.001517672,-0.050792,0.9983718,119.9591,-564.6338,-229.2735,-0.1545807,0.6633416,-0.01200721,28.98944,53.76327,0,0,0
500,2.495,-0.001350309,-0.04888165,0.9962292,76.66746,-580.6038,-240.4422,-0.1609208,0.6588895,-0.01420979,28.98499,53.75166,0,0,0
501,2.5,-0.002105051,-0.0511653,1.001885,100.0413,-543.0888,-174.9873,-0.1590808,0.6543387,-0.01800856,28.98137,53.74166,0,0,0
502,2.505,-0.003051515,-0.05071522,0.9989328,32.09405,-620.5797,-151.1265,-0.1518619,0.6531945,-0.01749101,28.97863,53.73329,0,0,0
503,2.51,-0.003662601,-0.0502013,0.9988935,76.31114,-562.8655,-217.0174,-0.1500791,0.6558377,-0.01350724,28.97683,53.72649,0,0,0
504,2.515,-0.00349118,-0.05100156,0.9977443,65.00628,-587.1362,-229.5413,-0.155202,0.6528451,-0.01198462,28.97601,53.72118,0,0,0
505,2.52,-0.005385211,-0.04945936,0.9987382,12.38746,-570.1943,-206.7972,-0.1590813,0.6468346,-0.01500826,28.97618,53.71732,0,0,0
506,2.525,-0.005251504,-0.05183307,1.001596,53.05185,-547.5583,-160.8102,-0.1559529,0.6423795,-0.01833346,28.97734,53.71474,0,0,0
507,2.53,-0.005150911,-0.05054002,0.9997319,-55.3584,-588.4671,-206.3333,-0.1530804,0.6468363,-0.01800831,28.97948,53.71335,0,0,0
508,2.535,-0.006466529,-0.0510786,1.000172,-12.2932,-570.0493,-233.6979,-0.1561162,0.6534711,-0.01464699,28.98257,53.71301,0,0,0
509,2.54,-0.005154787,-0.05134277,0.9973044,85.03948,-581.3979,-266.2389,-0.1605818,0.6573384,-0.01200696,28.98656,53.71355,0,0,0
510,2.545,-0.006033821,-0.05282913,1.001159,102.364,-534.0726,-251.4385,-0.1583692,0.653181,-0.01288275,28.99138,53.71484,0,0,0
511,2.55,-0.004139393,-0.05202797,1.001685,44.31132,-576.5769,-221.3954,-0.1530799,0.6483356,-0.01650854,28.99694,53.71669,0,0,0
512,2.555,-0.005410484,-0.04976025,1.001589,49.96157,-552.4306,-205.6774,-0.1523827,0.6460377,-0.01867493,29.00311,53.71889,0,0,0
513,2.56,-0.003903919,-0.05107395,0.9989796,167.1718,-624.3808,-222.4584,-0.1575823,0.6498368,-0.01650779,29.00096,53.70494,0,0,0
514,2.565,-0.005124805,-0.05282157,1.000719,99.78468,-549.1774,-235.656,-0.1616444,0.6528211,-0.01257507,28.99493,53.68316,0,0,0
515,2.57,-0.001168621,-0.0512349,1.000628,44.66798,-615.1102,-234.015,-0.1620833,0.6543384,-0.01200696,28.9896,53.66216,0,0,0
516,2.575,-0.005510159,-0.05071154,1.001871,95.48933,-489.7978,-271.7102,-0.1605044,0.6529836,-0.01493017,28.98507,53.64231,0,0,0
517,2.58,-0.002694556,-0.04974927,0.9993282,103.1871,-572.4373,-267.418,-0.1590813,0.6543387,-0.01650804,28.98145,53.62398,0,0,0
518,2.585,-0.006139497,-0.05073994,0.998852,109.0051,-554.469,-162.9464,-0.1562236,0.6552876,-0.01466334,28.97882,53.60747,0,0,0
519,2.59,-0.001466676,-0.04985555,0.9966795,6.482762,-568.6403,-258.1981,-0.1530792,0.655839,-0.01350799,28.97723,53.59309,0,0,0
520,2.595,-0.003951358,-0.0522743,1.000179,73.70669,-521.9717,-252.389,-0.1515554,0.6535102,-0.01618839,28.9767,53.5811,0,0,0
521,2.6,-0.003086438,-0.05015735,0.9952688,78.44531,-625.5314,-231.5689,-0.1530794,0.654339,-0.01950934,28.97727,53.57173,0,0,0
522,2.605,-0.005353379,-0.05201878,0.9968326,21.66962,-564.7489,-235.4772,-0.1547718,0.656103,-0.01865148,28.97892,53.56515,0,0,0
523,2.61,-0.001980634,-0.04946771,0.9931062,0.8014038,-610.6469,-254.8263,-0.1545787,0.6573387,-0.01500826,28.98164,53.56152,0,0,0
524,2.615,-0.003935828,-0.05094043,0.9985098,48.71336,-567.9862,-219.6804,-0.1510876,0.6530204,-0.01427965,28.98537,53.56094,0,0,0
525,2.62,-0.002369258,-0.04876013,0.9937374,99.20597,-608.0901,-279.8224,-0.1470766,0.6498368,-0.01800906,28.99007,53.5634,0,0,0
526,2.625,-0.004394146,-0.05230716,0.9980539,97.85882,-555.7061,-218.9137,-0.146026,0.6498387,-0.02039322,28.99566,53.56888,0,0,0
527,2.63,-0.002651913,-0.04952757,0.9921237,5.249767,-615.7112,-208.5317,-0.1500781,0.6543387,-0.01650729,29.00202,53.57726,0,0,0
528,2.635,-0.003845315,-0.05115715,0.996572,96.99558,-551.1794,-266.7194,-0.1539871,0.6558684,-0.01005225,29.00902,53.58833,0,0,0
529,2.64,-0.00264405,-0.04970071,0.9965407,127.2543,-595.7322,-275.8408,-0.1530789,0.655839,-0.00900591,29.00916,53.58817,0,0,0
530,2.645,-0.002090523,-0.05018935,0.9992129,120.6779,-574.4036,-197.5803,-0.1495593,0.6539267,-0.01371991,29.00393,53.57948,0,0,0
531,2.65,-0.0009707779,-0.05030726,0.9978709,83.66428,-553.0445,-262.3571,-0.1515796,0.6543387,-0.01650754,28.99933,53.57337,0,0,0
532,2.655,-0.001721707,-0.04922719,0.9963895,54.39196,-549.1002,-235.5306,-0.1576087,0.6542463,-0.01364992,28.99547,53.56993,0,0,0
533,2.66,-0.002417398,-0.05003683,0.9990595,42.76349,-562.4606,-248.0293,-0.1590811,0.6558383,-0.01050543,28.99245,53.56923,0,0,0
534,2.665,-0.001476997,-0.04887355,1.000204,125.7309,-573.2245,-281.709,-0.1538646,0.6545762,-0.01077421,28.99033,53.57122,0,0,0
535,2.67,-0.004056239,-0.05075967,1.000887,25.98501,-533.2765,-286.6075,-0.1530817,0.6513364,-0.01050486,28.98915,53.57581,0,0,0
536,2.675,-0.002738054,-0.05036416,0.9974904,39.87745,-592.743,-272.1312,-0.1607418,0.6464278,-0.007449252,28.98894,53.58284,0,0,0
537,2.68,-0.00673276,-0.05182133,0.9976087,88.69421,-522.2067,-211.8127,-0.1665833,0.6483368,-0.007505885,28.9897,53.59214,0,0,0
538,2.685,-0.002487577,-0.05091545,0.9996422,93.58321,-623.0688,-227.9797,-0.1606328,0.6533001,-0.01357085,28.99144,53.6035,0,0,0
539,2.69,-0.007566576,-0.05077543,1.003074,42.84473,-551.0627,-270.1557,-0.1515798,0.6558378,-0.0180076,28.99413,53.61668,0,0,0
540,2.695,-0.00261078,-0.05085445,1.000562,-13.68747,-639.0214,-235.166,-0.1515791,0.6507825,-0.0143879,28.99774,53.63141,0,0,0
541,2.7,-0.007676595,-0.05107752,0.9997572,79.90041,-550.2543,-222.2171,-0.1590814,0.6483362,-0.009006089,29.0022,53.64743,0,0,0
542,2.705,-0.002448471,-0.0502794,0.9983396,85.83052,-614.976,-270.0217,-0.1610363,0.6501583,-0.01054742,29.00745,53.66445,0,0,0
543,2.71,-0.007624604,-0.0518813,1.003114,63.47187,-567.6545,-256.0984,-0.1545785,0.6528365,-0.01650854,29.01338,53.68215,0,0,0
544,2.715,-0.001808438,-0.05116472,1.001109,116.8523,-621.9297,-277.6183,-0.1475255,0.6489599,-0.01866722,29.01987,53.70021,0,0,0
545,2.72,-0.005607991,-0.05182895,1.004281,98.66438,-549.8613,-243.3614,-0.1470768,0.6468356,-0.01650829,29.0209,53.70736,0,0,0
546,2.725,-0.002462268,-0.05023212,0.9978138,85.10782,-627.8892,-226.1052,-0.1499716,0.6489789,-0.0150498,29.01499,53.70082,0,0,0
547,2.73,-0.005771854,-0.05074998,1.00185,95.69822,-589.0469,-240.5731,-0.1515781,0.6528364,-0.01500676,29.00962,53.69452,0,0,0
548,2.735,-0.003715978,-0.04834031,0.9991773,62.01251,-603.0461,-225.1007,-0.1505202,0.6493137,-0.01288461,29.00493,53.68874,0,0,0
549,2.74,-0.006794076,-0.05131577,1.002906,103.6544,-528.6069,-184.8326,-0.1500781,0.645335,-0.009004908,29.00103,53.68373,0,0,0
550,2.745,-0.003093742,-0.04929774,0.9965686,40.67435,-595.8686,-262.3124,-0.1510436,0.6461918,-0.007611854,28.99799,53.67971,0,0,0
551,2.75,-0.006590809,-0.05009639,0.9997306,96.26254,-523.8855,-204.4258,-0.1530797,0.6528372,-0.01050644,28.99587,53.67691,0,0,0
552,2.755,-0.00389128,-0.0502935,0.9965286,97.00636,-557.3912,-234.7385,-0.1544869,0.653691,-0.01461105,28.99471,53.67553,0,0,0
553,2.76,-0.006029516,-0.05142253,0.9998508,105.1299,-578.1556,-221.9938,-0.1560807,0.6498368,-0.01650829,28.99454,53.67572,0,0,0
554,2.765,-0.003232104,-0.050578,0.9950991,45.00814,-537.2452,-245.8274,-0.1570091,0.6473703,-0.01594976,28.99537,53.67764,0,0,0
555,2.77,-0.003328694,-0.04988109,0.9950207,97.16509,-501.3518,-217.1765,-0.1560795,0.6543387,-0.01500776,28.99718,53.68141,0,0,0
556,2.775,-0.004658153,-0.05134791,0.9947421,53.54174,-559.3352,-199.2632,-0.1519044,0.6598235,-0.01483075,28.99995,53.6871,0,0,0
557,2.78,-0.002584707,-0.04904195,0.9962915,118.4763,-563.7938,-235.8779,-0.1485783,0.655837,-0.01500776,29.00364,53.69473,0,0,0
558,2.785,-0.003925417,-0.05118612,0.9990812,26.51041,-564.1233,-215.3647,-0.1503354,0.6441006,-0.0149926,29.00817,53.70426,0,0,0
559,2.79,-0.001891384,-0.04878195,0.994664,32.82957,-608.8942,-283.4679,-0.157582,0.6423348,-0.01500751,29.01347,53.71562,0,0,0
560,2.795,-0.004206238,-0.04991682,0.9957452,71.99156,-587.6057,-267.5834,-0.162898,0.6506601,-0.01470285,29.01941,53.72861,0,0,0
561,2.8,-0.001162242,-0.04896946,0.9941876,115.8366,-613.9572,-287.8186,-0.1605803,0.657338,-0.01350724,29.02145,53.73479,0,0,0
562,2.805,-0.00394615,-0.05057058,0.9984039,33.4333,-539.816,-213.9151,-0.1514089,0.651014,-0.01267223,29.01514,53.72592,0,0,0
563,2.81,0.000384486,-0.05015138,0.9945716,59.08366,-537.7472,-243.1448,-0.1440758,0.645336,-0.01500901,29.00944,53.71856,0,0,0
564,2.815,-0.003415548,-0.05038078,0.9963847,48.63172,-511.7922,-277.3509,-0.1443692,0.6493896,-0.01995591,29.00447,53.71291,0,0,0
565,2.82,-0.0001255645,-0.04954645,0.9955591,61.25125,-622.4176,-241.8111,-0.1515799,0.6588393,-0.02251014,29.00035,53.70906,0,0,0
566,2.825,-0.00133826,-0.05031894,0.9981275,74.7967,-552.6862,-244.6324,-0.1583529,0.6574,-0.01925044,28.99715,53.70709,0,0,0
567,2.83,-0.0002908525,-0.05107099,0.997728,34.11426,-639.0839,-244.2252,-0.1605823,0.6498366,-0.01350674,28.99492,53.70693,0,0,0
568,2.835,-0.00364276,-0.05119356,0.9996626,96.73669,-539.4214,-226.9322,-0.1584994,0.6465546,-0.01079012,28.9937,53.70855,0,0,0
569,2.84,-0.002512618,-0.04975881,0.9964638,118.7377,-588.6409,-202.5976,-0.1560802,0.6528372,-0.01200646,28.9935,53.7118,0,0,0
570,2.845,-0.005298231,-0.05154012,1.000412,55.39844,-536.1688,-230.1123,-0.1542517,0.6551266,-0.0136763,28.99434,53.71661,0,0,0
571,2.85,-0.003852171,-0.05160215,0.999257,37.59782,-588.8516,-218.6953,-0.1530789,0.6498353,-0.01350649,28.99619,53.72278,0,0,0
572,2.855,-0.007085399,-0.05239045,1.003849,84.08719,-519.7942,-190.9658,-0.1516522,0.6422608,-0.01196332,28.99901,53.73014,0,0,0
573,2.86,-0.003479216,-0.04981936,0.9977014,68.47363,-561.4263,-275.4796,-0.1515791,0.6453363,-0.01050568,29.00277,53.73851,0,0,0
574,2.865,-0.007888224,-0.05107399,1.001358,-13.92885,-593.014,-242.2374,-0.1530999,0.6542432,-0.01038308,29.00736,53.74768,0,0,0
575,2.87,-0.005052621,-0.04816699,0.9984168,84.73284,-589.6704,-309.2042,-0.156081,0.6603398,-0.01200621,29.01271,53.7574,0,0,0
576,2.875,-0.005653254,-0.05039658,1.004407,121.6643,-567.46,-304.1652,-0.1577807,0.6557068,-0.01332101,29.01868,53.76744,0,0,0
577,2.88,-0.003663729,-0.05014411,0.9994174,65.57305,-572.0444,-263.0991,-0.157581,0.6498364,-0.01200596,29.02219,53.77209,0,0,0
578,2.885,-0.005126385,-0.0516535,1.000895,145.1896,-544.9244,-237.7866,-0.1558011,0.6480081,-0.009584558,29.01583,53.75759,0,0,0
579,2.89,-0.001391813,-0.04936634,0.9970666,56.07864,-592.5833,-282.1528,-0.1545792,0.6513364,-0.01050669,29.01001,53.74339,0,0,0
580,2.895,-0.002676402,-0.05069222,1.000759,95.56638,-535.6464,-266.2865,-0.1528016,0.6506507,-0.01506263,29.00484,53.72982,0,0,0
581,2.9,-0.004145419,-0.05132401,1.000474,45.5432,-573.985,-250.9012,-0.1500776,0.6483359,-0.01800831,29.00043,53.71722,0,0,0
582,2.905,-0.003649272,-0.04963945,0.9999225,112.1074,-512.9611,-169.093,-0.14784,0.6470988,-0.01585208,28.99686,53.70587,0,0,0
583,2.91,-0.003105209,-0.05097358,0.9977877,8.167665,-533.317,-197.783,-0.1500786,0.6513374,-0.01200621,28.99418,53.69605,0,0,0
584,2.915,-0.004360193,-0.05014112,0.9974815,14.13475,-567.3699,-220.8349,-0.1545598,0.6539561,-0.01100745,28.99244,53.68802,0,0,0
585,2.92,-0.006792456,-0.05108985,1.000539,94.96429,-614.9861,-225.1501,-0.1560796,0.6543381,-0.01200564,28.99165,53.68201,0,0,0
586,2.925,-0.00455006,-0.05001581,0.9983237,109.5239,-597.2866,-219.4339,-0.1525704,0.6519556,-0.01117648,28.99183,53.67818,0,0,0
587,2.93,-0.005689051,-0.05083156,0.9958793,31.38449,-564.7841,-236.4625,-0.1500782,0.6528376,-0.009005516,28.99297,53.67673,0,0,0
588,2.935,-0.005464254,-0.04985125,0.9952987,-5.697087,-575.9708,-237.8026,-0.1513714,0.6534234,-0.009588209,28.99504,53.67772,0,0,0
589,2.94,-0.004527727,-0.04959185,0.9955589,82.66615,-545.3615,-268.2429,-0.1530783,0.6528362,-0.01350641,28.998,53.68124,0,0,0
590,2.945,-0.001208885,-0.04889955,0.9965501,67.47513,-611.3962,-263.4176,-0.1507735,0.6478395,-0.01512381,29.00181,53.68724,0,0,0
591,2.95,-0.004108225,-0.04944161,0.9963923,30.73664,-580.6556,-195.9867,-0.148578,0.6453352,-0.01050458,29.00637,53.69566,0,0,0
592,2.955,-0.0008348421,-0.0508968,0.9941012,21.50857,-610.2192,-260.7369,-0.1504193,0.6466166,-0.004553248,29.01158,53.70633,0,0,0
593,2.96,-0.003505444,-0.0495766,0.9939582,23.97374,-550.724,-243.2488,-0.1545799,0.6528379,-0.006005968,29.01584,53.71627,0,0,0
594,2.965,-0.001008505,-0.05090792,0.9960855,71.5472,-577.2983,-223.4899,-0.1554733,0.6556124,-0.01483157,29.00879,53.70612,0,0,0
595,2.97,-0.003256662,-0.05148078,0.9985566,99.52952,-518.0632,-212.7097,-0.1545808,0.6543373,-0.02100858,29.00233,53.69796,0,0,0
596,2.975,-0.001972348,-0.04833473,0.9952758,11.66427,-623.4827,-200.3015,-0.1556764,0.6491489,-0.01735475,28.99658,53.69191,0,0,0
597,2.98,-0.004003567,-0.05133972,0.9966331,56.53086,-541.9155,-223.3484,-0.1590815,0.6483371,-0.009004657,28.99168,53.68809,0,0,0
598,2.985,-0.0006855348,-0.04881076,0.9947494,113.3634,-596.0918,-184.7433,-0.1591548,0.6516373,-0.005634692,28.98771,53.68645,0,0,0
599,2.99,-0.003958299,-0.05159824,1.001603,76.05507,-552.2039,-188.0013,-0.1545789,0.658841,-0.009005408,28.98474,53.68697,0,0,0
600,2.995,-0.00124299,-0.0490103,0.9964233,30.30047,-637.184,-228.9565,-0.1490144,0.6618932,-0.01292513,28.98284,53.68953,0,0,0
601,3,-0.004624316,-0.05127907,1.000748,13.41735,-564.4796,-227.1565,-0.1485788,0.6603393,-0.01350727,28.98202,53.69399,0,0,0
602,3.005,-0.0004814749,-0.04891706,0.9940464,5.011199,-620.3741,-278.7425,-0.1532751,0.6531571,-0.01313487,28.98231,53.70014,0,0,0
603,3.01,-0.005267514,-0.05126935,1.001731,32.43306,-527.616,-241.3932,-0.1590819,0.648336,-0.01500819,28.9837,53.70776,0,0,0
604,3.015,-0.002572154,-0.05151726,0.9984571,33.92415,-577.8045,-246.8036,-0.1601099,0.6476131,-0.01775501,28.98616,53.71666,0,0,0
605,3.02,-0.007073937,-0.05151632,1.004161,90.3522,-551.8863,-190.9962,-0.1560793,0.6528376,-0.01800817,28.98966,53.72657,0,0,0
606,3.025,-0.004478173,-0.05127403,0.9991367,146.7023,-602.8795,-247.0067,-0.1504669,0.6552991,-0.01513744,28.99413,53.73724,0,0,0
607,3.03,-0.006950869,-0.04972933,0.9994721,94.05863,-559.5994,-240.4919,-0.1485775,0.6528363,-0.01200621,28.99947,53.7484,0,0,0
608,3.035,-0.004450814,-0.05178152,1.000295,53.14164,-611.7591,-241.83,-0.1502709,0.6454196,-0.01099922,29.00558,53.75977,0,0,0
609,3.04,-0.005542858,-0.05062533,1.002134,143.2439,-584.4132,-298.2937,-0.1530795,0.6438355,-0.01200707,29.01229,53.77106,0,0,0
610,3.045,-0.003677496,-0.05191873,1.003005,28.09304,-607.5541,-272.9141,-0.1541184,0.6489553,-0.01394066,29.00629,53.75746,0,0,0
611,3.05,-0.003609622,-0.05147513,1.00032,-37.6218,-583.0417,-255.7563,-0.1545799,0.6573389,-0.01650882,29.00088,53.74379,0,0,0
612,3.055,-0.003295869,-0.05320439,1.000285,-9.036134,-583.6741,-222.0436,-0.154799,0.6575159,-0.0186162,28.9962,53.73044,0,0,0
613,3.06,-0.002732412,-0.05165175,1.000989,46.5377,-618.8792,-224.7575,-0.1545791,0.6513355,-0.01800788,28.99233,53.7177,0,0,0
614,3.065,-0.002938421,-0.05188254,1.003675,64.45581,-550.9458,-236.9003,-0.1523704,0.6436996,-0.01429018,28.98935,53.70589,0,0,0
615,3.07,-0.00261908,-0.05275442,1.000038,84.55256,-594.1724,-178.5732,-0.1500779,0.6438344,-0.01050515,28.9873,53.69527,0,0,0
616,3.075,-0.003555316,-0.05163193,0.9975227,154.53,-529.0632,-191.5905,-0.149377,0.6475813,-0.009083456,28.98622,53.68616,0,0,0
617,3.08,-0.003364366,-0.05028408,0.9980788,98.00608,-598.0888,-236.8626,-0.1515793,0.6513364,-0.009004657,28.98612,53.67876,0,0,0
618,3.085,-0.008260746,-0.05038462,0.9998051,43.80185,-517.0931,-296.3169,-0.1543757,0.6494738,-0.008584609,28.98697,53.67331,0,0,0
619,3.09,-0.004518293,-0.04896592,0.998555,30.40043,-645.5887,-313.4399,-0.1560799,0.648337,-0.009005802,28.98878,53.67001,0,0,0
620,3.095,-0.008321633,-0.05051678,0.9987274,123.5394,-544.5395,-265.4072,-0.1547282,0.650246,-0.01163213,28.99148,53.66901,0,0,0
621,3.1,-0.003680886,-0.0485057,0.9945496,187.3454,-629.8695,-302.781,-0.1515778,0.6573406,-0.01500805,28.99504,53.67039,0,0,0
622,3.105,-0.008018087,-0.04942644,1.000043,56.65207,-571.6398,-255.3278,-0.1484238,0.6611047,-0.0166096,28.99937,53.67421,0,0,0
623,3.11,-0.002464927,-0.04881028,0.9959633,22.64233,-671.1552,-259.1938,-0.1485783,0.6603401,-0.01650854,29.00438,53.68041,0,0,0
624,3.115,-0.004472797,-0.05151313,0.9983245,67.19489,-548.8171,-231.8932,-0.1518007,0.6547807,-0.01633768,29.00995,53.68892,0,0,0
625,3.12,0.001647561,-0.04853318,0.9920424,61.76731,-617.9772,-278.6781,-0.1560807,0.6528387,-0.01650832,29.01596,53.6995,0,0,0
626,3.125,-0.001977863,-0.05256227,0.9971005,145.8386,-578.7332,-254.5975,-0.1575102,0.6547676,-0.01600924,29.01051,53.6901,0,0,0
627,3.13,0.001580968,-0.04979942,0.9937829,101.236,-557.4769,-273.2431,-0.1560799,0.6603407,-0.01500776,29.00397,53.68,0,0,0
628,3.135,-0.002447883,-0.05174581,1.001228,192.3657,-511.8149,-291.2308,-0.1532945,0.6605667,-0.01478111,28.99797,53.67211,0,0,0
629,3.14,0.001410128,-0.04944149,0.9918497,193.0512,-595.2573,-280.1743,-0.1515778,0.6558385,-0.01500647,28.99261,53.66653,0,0,0
630,3.145,-0.003784785,-0.05198305,0.9976697,134.3472,-498.2831,-228.1985,-0.1495436,0.6495777,-0.01252024,28.98801,53.66332,0,0,0
631,3.15,-0.001125837,-0.05049753,0.9960037,122.514,-556.2614,-252.0438,-0.1470769,0.6513369,-0.006002246,28.98423,53.66241,0,0,0
632,3.155,-0.005539466,-0.04976526,1.000373,92.29858,-545.9526,-205.6682,-0.1462811,0.6543177,-0.0001310142,28.98134,53.66371,0,0,0
633,3.16,-0.003696738,-0.05188537,0.9997632,35.07694,-599.4102,-253.5312,-0.1515805,0.6513357,-0.001502708,28.97936,53.66708,0,0,0
634,3.165,-0.004966011,-0.04959676,0.9992797,74.82004,-565.0015,-291.0958,-0.1606337,0.6419387,-0.009195537,28.97835,53.67229,0,0,0
635,3.17,-0.00514655,-0.05035847,0.9984022,43.29516,-628.6307,-250.1297,-0.1665844,0.6423349,-0.01500719,28.97831,53.67917,0,0,0
636,3.175,-0.005617802,-0.04971614,0.9996321,70.03381,-570.8214,-243.4899,-0.1640074,0.6513318,-0.01425635,28.97925,53.68745,0,0,0
637,3.18,-0.004771015,-0.05080906,1.001876,93.85812,-535.8895,-268.2146,-0.1575815,0.6558373,-0.01200728,28.98112,53.69683,0,0,0
638,3.185,-0.003527329,-0.05038999,0.9995583,50.49229,-541.017,-297.8713,-0.1544828,0.6467478,-0.01443521,28.98391,53.70708,0,0,0
639,3.19,-0.004274293,-0.05030197,0.9988886,31.42034,-511.7099,-234.9248,-0.1575824,0.642336,-0.01950952,28.98756,53.71789,0,0,0
640,3.195,-0.002848194,-0.05092565,0.998054,38.9194,-585.6966,-236.366,-0.1614954,0.6509746,-0.02058493,28.99198,53.72894,0,0,0
641,3.2,-0.006097914,-0.05166262,1.002079,91.17619,-519.5491,-207.5331,-0.162083,0.6618401,-0.01650768,28.99706,53.73993,0,0,0
642,3.205,-0.003004738,-0.05172779,1.000873,71.49315,-564.8278,-175.7199,-0.1590246,0.6568847,-0.01206939,28.9924,53.73149,0,0,0
643,3.21,-0.005990009,-0.05051661,1.001059,113.8191,-551.0489,-174.83,-0.1560802,0.6468354,-0.01050515,28.98544,53.71742,0,0,0
644,3.215,-0.002976784,-0.05070418,0.9997126,88.53539,-589.1011,-222.9694,-0.1540507,0.6447307,-0.01009673,28.97928,53.70345,0,0,0
645,3.22,-0.007113613,-0.05166876,1.001422,2.244994,-565.1472,-214.8109,-0.1530796,0.6513371,-0.009004872,28.97403,53.68992,0,0,0
646,3.225,-0.005049023,-0.05034055,1.000921,24.56076,-605.5382,-177.7931,-0.1530601,0.6529539,-0.008491331,28.96983,53.67715,0,0,0
647,3.23,-0.007989424,-0.05194509,1.00327,123.2668,-521.4072,-215.0612,-0.1560819,0.6528385,-0.01050629,28.96672,53.66541,0,0,0
648,3.235,-0.003975993,-0.04938099,0.9967629,122.7937,-601.0919,-259.5414,-0.1602786,0.6544078,-0.01372878,28.96478,53.65499,0,0,0
649,3.24,-0.005908349,-0.05087191,1.000072,78.57595,-548.5171,-228.0738,-0.1620828,0.6573393,-0.01500733,28.96403,53.64619,0,0,0
650,3.245,-0.0045168,-0.04922578,0.9966657,43.35894,-622.9087,-208.1469,-0.1588427,0.6541366,-0.0134493,28.96449,53.63929,0,0,0
651,3.25,-0.00535433,-0.05161082,1.002314,85.20417,-570.239,-220.437,-0.1545799,0.6528391,-0.01200707,28.96615,53.63449,0,0,0
652,3.255,-0.002373674,-0.04875808,0.9960712,19.55895,-569.3002,-278.0133,-0.1530424,0.6562728,-0.01348793,28.96899,53.63203,0,0,0
653,3.26,-0.005253798,-0.05022141,0.99828,86.87813,-529.0535,-247.9599,-0.1545799,0.6603392,-0.01650811,28.97296,53.6321,0,0,0
654,3.265,-0.00198857,-0.04993667,0.9924359,115.2293,-600.2681,-209.4268,-0.1552172,0.6537221,-0.01682263,28.97798,53.63482,0,0,0
655,3.27,-0.004793589,-0.0505564,0.9975069,135.3814,-570.2903,-213.7224,-0.1545802,0.643833,-0.01350699,28.98396,53.64025,0,0,0
656,3.275,-0.001977948,-0.04923248,0.9945861,46.17761,-611.214,-226.7392,-0.154153,0.6390901,-0.01105031,28.99079,53.6484,0,0,0
657,3.28,-0.004226036,-0.05098059,0.9953496,70.58503,-572.6484,-245.7982,-0.1560812,0.6438341,-0.01350763,28.9983,53.65916,0,0,0
658,3.285,-0.001445536,-0.05115581,0.9928808,66.98112,-619.3547,-285.0674,-0.158402,0.6483883,-0.01796882,28.99754,53.65604,0,0,0
659,3.29,-0.004233357,-0.05049441,0.9940211,121.5257,-559.1542,-274.0381,-0.1590806,0.6513369,-0.0180076,28.99291,53.64739,0,0,0
660,3.295,-0.001898117,-0.0516206,0.9966677,97.12216,-579.4948,-212.0857,-0.1557285,0.6511075,-0.01278445,28.98896,53.64164,0,0,0
661,3.3,-0.002341383,-0.05064144,0.9974874,37.70089,-499.5829,-225.5204,-0.1500771,0.6513366,-0.009006089,28.98576,53.63903,0,0,0
662,3.305,-0.003375352,-0.05070999,0.9966664,-4.659132,-575.4412,-265.1942,-0.1456377,0.6494415,-0.01143944,28.9834,53.63966,0,0,0
663,3.31,-0.002343024,-0.0502562,0.995293,38.2341,-607.0057,-254.3091,-0.1470784,0.6498373,-0.01650825,28.98192,53.64357,0,0,0
664,3.315,-0.00407931,-0.04974003,0.9956151,36.83234,-569.8258,-223.2176,-0.1531124,0.6514553,-0.01773492,28.98135,53.6507,0,0,0
665,3.32,-0.003206851,-0.04964485,0.9984131,84.4612,-560.1165,-212.2562,-0.159082,0.6558397,-0.01500776,28.98169,53.66096,0,0,0
666,3.325,-0.003609273,-0.05027249,0.997946,-13.89523,-522.9648,-225.8218,-0.160017,0.6578476,-0.01340417,28.98294,53.67415,0,0,0
667,3.33,-0.003365233,-0.04812013,0.9963556,34.93563,-585.2974,-267.2355,-0.1575809,0.6588393,-0.01500748,28.9851,53.69004,0,0,0
668,3.335,-0.003707835,-0.04895311,0.9972098,85.47659,-561.0166,-260.3704,-0.1550751,0.6556441,-0.0161583,28.98811,53.70835,0,0,0
669,3.34,-0.002298419,-0.05144275,0.9991555,62.2438,-558.5035,-265.1668,-0.1545794,0.6513361,-0.01350555,28.99193,53.72876,0,0,0
670,3.345,-0.002970353,-0.05216751,1.000634,134.5184,-545.7315,-300.6281,-0.1535697,0.6461431,-0.008596031,28.99649,53.75092,0,0,0
671,3.35,-0.002026451,-0.05178802,0.9989484,204.1454,-615.084,-295.3662,-0.1515784,0.6468363,-0.00600425,29.00173,53.77443,0,0,0
672,3.355,-0.002435836,-0.05234225,0.9992713,-113.9549,-592.5077,-239.0689,-0.1498956,0.6508653,-0.007926904,29.00753,53.79886,0,0,0
673,3.36,-0.002108361,-0.05017496,0.9988703,-82.57342,-611.2972,-257.4235,-0.1515798,0.6558383,-0.01200592,29.01377,53.82377,0,0,0
674,3.365,-0.004762316,-0.0526842,1.003151,107.2512,-550.7786,-279.2133,-0.1555706,0.6545169,-0.01345172,29.01296,53.83505,0,0,0
675,3.37,-0.004355617,-0.05122977,0.9998289,66.78683,-586.9218,-232.0365,-0.1590814,0.6513372,-0.01050486,29.0066,53.83527,0,0,0
676,3.375,-0.007903598,-0.05276571,1.002163,96.24,-536.6104,-230.6593,-0.1582426,0.6493133,-0.006805268,29.00071,53.83548,0,0,0
677,3.38,-0.003957254,-0.04910553,0.9971692,130.1483,-606.4753,-228.5208,-0.1545802,0.652837,-0.007505598,28.99543,53.8358,0,0,0
678,3.385,-0.00715667,-0.05134199,1.003547,135.4415,-551.709,-149.9019,-0.1526339,0.6537844,-0.01238784,28.99088,53.83636,0,0,0
679,3.39,-0.004300277,-0.04925,0.998633,65.17934,-591.5269,-248.4615,-0.1560807,0.6498352,-0.01650854,28.98714,53.83726,0,0,0
680,3.395,-0.006909952,-0.05101791,1.002694,63.58976,-528.6279,-295.1811,-0.1593601,0.6426006,-0.01715937,28.98429,53.83861,0,0,0
681,3.4,-0.003313002,-0.04920121,0.9961417,68.93976,-636.3037,-340.5361,-0.156079,0.6438355,-0.01650768,28.98239,53.84054,0,0,0
682,3.405,-0.007367947,-0.05022918,1.000204,113.5537,-575.3124,-239.5222,-0.1483572,0.6511907,-0.01556146,28.98146,53.84317,0,0,0
683,3.41,-0.002179054,-0.05077692,0.9981028,155.8584,-606.8452,-286.8117,-0.1470776,0.6573387,-0.01200514,28.98154,53.8466,0,0,0
684,3.415,-0.005451389,-0.05203381,1.001424,294.2852,-428.9603,-194.3085,-0.1533469,0.6535088,-0.006312787,28.98262,53.85098,0,0,0
685,3.42,-0.0002909519,-0.05114556,0.9970947,158.8334,-584.3264,-205.8833,-0.1575804,0.6483353,-0.004504618,28.9847,53.85638,0,0,0
686,3.425,-0.004105433,-0.04930108,0.9974669,114.1387,-542.8923,-201.9069,-0.1539721,0.6463063,-0.009672265,28.98775,53.86292,0,0,0
687,3.43,-0.002737973,-0.05068137,0.9962414,22.96301,-588.1421,-209.2152,-0.1515797,0.6483353,-0.01650854,28.99169,53.87062,0,0,0
688,3.435,-0.004735703,-0.05103545,0.9987202,72.48622,-563.233,-238.8919,-0.1562201,0.6474867,-0.0185176,28.99647,53.87954,0,0,0
689,3.44,-0.002683445,-0.05129871,0.9976989,32.20935,-555.8585,-204.1344,-0.1605802,0.6483362,-0.01650796,29.00197,53.88963,0,0,0
690,3.445,-0.004008373,-0.04982916,0.9954854,36.30725,-567.8183,-245.7407,-0.154933,0.6505863,-0.01451941,29.00217,53.88993,0,0,0
691,3.45,-0.003306534,-0.04872314,0.9942962,44.38371,-526.2567,-212.4373,-0.1455757,0.6528366,-0.01350741,28.99561,53.87787,0,0,0
692,3.455,-0.002773579,-0.0509107,0.9962196,115.7109,-563.2491,-248.6775,-0.1432522,0.6485867,-0.01346062,28.98978,53.86748,0,0,0
693,3.46,-0.003729022,-0.04876002,0.9976366,44.64286,-564.1006,-248.4859,-0.1485777,0.6453355,-0.01650968,28.98481,53.85912,0,0,0
694,3.465,-0.0008067305,-0.04843648,0.9974488,103.662,-565.1752,-266.8717,-0.1525503,0.6471645,-0.02161728,28.98081,53.85308,0,0,0
695,3.47,-0.00266243,-0.04889559,0.9960775,53.3113,-516.7779,-273.3531,-0.1530792,0.6543379,-0.02250993,28.97786,53.8496,0,0,0
696,3.475,-0.001589661,-0.04907591,0.9957618,88.99493,-607.2252,-236.7137,-0.1529122,0.6556273,-0.01652075,28.97599,53.84881,0,0,0
697,3.48,-0.004188722,-0.05006525,0.99871,84.07664,-540.8962,-228.2368,-0.1530777,0.6513358,-0.01050629,28.97525,53.85081,0,0,0
698,3.485,-0.001277766,-0.05090401,0.9988577,124.7741,-604.5353,-219.0571,-0.1501723,0.6450543,-0.01103917,28.97566,53.85562,0,0,0
699,3.49,-0.004336129,-0.05118179,0.9995766,67.27892,-532.4525,-234.5374,-0.1455751,0.6453348,-0.01500733,28.97719,53.86321,0,0,0
700,3.495,-0.002676887,-0.04860827,0.9947126,95.3244,-554.6855,-193.1189,-0.1426667,0.6484647,-0.01545383,28.97981,53.87347,0,0,0
701,3.5,-0.004583061,-0.05292613,1.001212,145.4188,-541.7208,-186.9255,-0.1440762,0.6528385,-0.01200535,28.9835,53.88626,0,0,0
702,3.505,-0.001901907,-0.05008209,0.9990354,61.28218,-603.3659,-243.2159,-0.1480953,0.6543402,-0.008769015,28.9882,53.90134,0,0,0
703,3.51,-0.00765093,-0.05261128,1.004944,65.1613,-526.2071,-232.8381,-0.1530789,0.6573404,-0.00750431,28.9938,53.91847,0,0,0
704,3.515,-0.002326649,-0.0496623,0.9966922,131.8158,-603.0687,-296.2019,-0.1548835,0.6594477,-0.007861223,29.00021,53.9373,0,0,0
705,3.52,-0.006231635,-0.05194668,1.0026,96.67492,-527.0186,-281.4944,-0.1515772,0.6603393,-0.01050629,29.00729,53.95744,0,0,0
706,3.525,-0.00445641,-0.04903015,0.9979112,41.52106,-621.9189,-283.0581,-0.1457603,0.654833,-0.01417784,29.01047,53.9703,0,0,0
707,3.53,-0.004945952,-0.05157087,1.006088,104.8504,-529.66,-230.5177,-0.1455774,0.6483353,-0.01500733,29.00529,53.96745,0,0,0
708,3.535,-0.003372882,-0.05205077,1.000597,100.2466,-603.9291,-278.0955,-0.152638,0.6444452,-0.01263718,29.0007,53.96529,0,0,0
709,3.54,-0.006164599,-0.05072585,1.001764,112.2629,-557.143,-197.8108,-0.1605822,0.6483362,-0.01200678,28.99681,53.96392,0,0,0
710,3.545,-0.003659063,-0.04985027,0.9993694,22.20001,-569.6174,-189.8046,-0.1612327,0.6522593,-0.01458092,28.9937,53.96338,0,0,0
711,3.55,-0.007528437,-0.05054187,1.003407,37.15009,-551.2496,-273.7374,-0.1560799,0.6528372,-0.01500669,28.99146,53.96366,0,0,0
712,3.555,-0.004752185,-0.05101923,1.002086,36.50501,-580.3334,-270.948,-0.1508817,0.6489922,-0.0104689,28.99013,53.96478,0,0,0
713,3.56,-0.004991653,-0.05067804,0.9988711,59.38011,-543.1791,-226.9105,-0.1500788,0.649837,-0.007506457,28.98974,53.96669,0,0,0
714,3.565,-0.005119858,-0.05111327,0.9983258,114.1364,-578.8112,-175.9916,-0.1523717,0.6529559,-0.01239191,28.99029,53.96939,0,0,0
715,3.57,-0.004545938,-0.05028546,0.9998654,85.02309,-598.6274,-240.293,-0.1560807,0.6543373,-0.02101058,28.99179,53.97284,0,0,0
716,3.575,-0.003974393,-0.05147153,1.00045,50.70483,-583.9927,-252.2203,-0.1578138,0.6494855,-0.02401881,28.99424,53.97701,0,0,0
717,3.58,-0.003859419,-0.05032938,1.00002,116.297,-587.8245,-231.9198,-0.1560799,0.648337,-0.01950866,28.99757,53.98185,0,0,0
718,3.585,-0.003383284,-0.05131324,0.9977797,28.7868,-532.8653,-193.1057,-0.1520133,0.6522727,-0.01371265,29.00174,53.98733,0,0,0
719,3.59,-0.002119587,-0.05113641,0.9949427,27.09695,-582.6983,-269.0136,-0.1515804,0.6573389,-0.01200678,29.0067,53.9934,0,0,0
720,3.595,-0.006234308,-0.05052385,0.9965507,9.52641,-565.8343,-226.9738,-0.1563222,0.6546124,-0.01351846,29.01233,53.99997,0,0,0
721,3.6,-0.002754244,-0.05141526,0.9969113,76.5732,-605.6287,-219.71,-0.1620833,0.6513375,-0.01500776,29.01854,54.00696,0,0,0
722,3.605,-0.006169265,-0.04996056,0.9974928,102.2548,-541.9478,-188.5678,-0.1625823,0.6513503,-0.01529504,29.02222,54.0088,0,0,0
723,3.61,-0.002585356,-0.04897204,0.9940647,128.7445,-594.2614,-250.7791,-0.1590817,0.6543373,-0.0150069,29.01598,53.99191,0,0,0
724,3.615,-0.00560939,-0.05126397,0.9954768,111.3428,-525.3976,-270.399,-0.1559365,0.6516039,-0.01361682,29.01022,53.97577,0,0,0
725,3.62,-0.002315631,-0.04934682,0.9952966,108.4661,-580.8375,-252.8094,-0.1560807,0.648336,-0.01050522,29.00509,53.96077,0,0,0
726,3.625,-0.004634793,-0.05007572,0.9990786,37.44364,-558.9451,-170.3844,-0.156791,0.6480845,-0.00773656,29.00069,53.94729,0,0,0
727,3.63,-0.0008978597,-0.04928988,0.9940528,40.62066,-602.1553,-235.3077,-0.1560796,0.6528379,-0.009006375,28.99711,53.93568,0,0,0
728,3.635,-0.004229567,-0.05059764,0.9968483,85.70207,-573.9482,-207.1067,-0.1530204,0.6545784,-0.01398546,28.99442,53.9262,0,0,0
729,3.64,-0.001025186,-0.04903857,0.9930533,0.07575148,-607.1226,-232.2393,-0.1500778,0.6543373,-0.01800953,28.99264,53.9191,0,0,0
730,3.645,-0.002658324,-0.05204654,1.000634,38.72631,-556.5364,-239.0103,-0.1490905,0.6506178,-0.01873679,28.99182,53.91456,0,0,0
731,3.65,-0.001033228,-0.0500679,0.9953434,31.68737,-620.4257,-270.3011,-0.1515793,0.6468349,-0.01951095,28.99197,53.91273,0,0,0
732,3.655,-0.00296615,-0.05237348,0.9995629,66.73891,-560.4689,-218.3028,-0.1547381,0.6435515,-0.0224252,28.99307,53.9137,0,0,0
733,3.66,-0.002513366,-0.04987612,0.9944898,-11.51253,-628.4825,-252.0841,-0.1560805,0.6483368,-0.02401156,28.99511,53.91753,0,0,0
734,3.665,-0.003873663,-0.05160987,0.9992916,91.57113,-585.0989,-259.7635,-0.1548322,0.6558306,-0.02141116,28.99805,53.92416,0,0,0
735,3.67,-0.002806043,-0.05173167,0.9990632,90.36089,-608.4493,-220.1888,-0.1545805,0.6588388,-0.01800903,29.00183,53.93355,0,0,0
736,3.675,-0.005598219,-0.05052828,0.9998797,101.9533,-568.0765,-188.7854,-0.1561729,0.6522007,-0.0171507,29.00638,53.94554,0,0,0
737,3.68,-0.003353553,-0.05097732,0.9980972,108.7265,-598.9756,-216.6087,-0.1575804,0.6483362,-0.0165079,29.01158,53.95989,0,0,0
738,3.685,-0.006178095,-0.04964796,0.9984208,84.8874,-561.2712,-231.4833,-0.1549246,0.6506037,-0.01366091,29.01584,53.97361,0,0,0
739,3.69,-0.003105618,-0.05098949,1.000055,90.61544,-592.3531,-236.6907,-0.1500776,0.654337,-0.01200735,29.00878,53.96743,0,0,0
740,3.695,-0.004468342,-0.05063827,1.001557,130.9697,-585.5192,-218.1818,-0.1474015,0.6500164,-0.01444722,29.0023,53.96323,0,0,0
741,3.7,-0.003869643,-0.05024698,1.001238,122.4194,-582.6365,-263.2791,-0.1500783,0.6468362,-0.01800974,28.99654,53.96119,0,0,0
742,3.705,-0.003514391,-0.05222683,1.000321,125.0994,-590.101,-273.5938,-0.1539415,0.6505524,-0.01955454,28.99162,53.96138,0,0,0
743,3.71,-0.004637959,-0.05052259,0.9993941,86.86898,-554.4007,-221.2973,-0.1545794,0.658839,-0.02101087,28.98765,53.96379,0,0,0
744,3.715,-0.004106643,-0.05067192,1.002109,93.62844,-592.7781,-209.8691,-0.1518343,0.6577753,-0.02289055,28.98467,53.96838,0,0,0
745,3.72,-0.004036925,-0.05072741,1.000246,71.1113,-552.2623,-277.9182,-0.1515793,0.6498355,-0.02100958,28.98276,53.9751,0,0,0
746,3.725,-0.00329458,-0.05172808,0.9995782,81.21069,-597.1674,-278.4795,-0.1548335,0.6427425,-0.01490278,28.98194,53.98382,0,0,0
747,3.73,-0.00307419,-0.05002368,0.9979838,71.25837,-560.9658,-204.8103,-0.1575806,0.6453355,-0.01200764,28.98221,53.99437,0,0,0
748,3.735,-0.003633924,-0.05068012,0.9991049,135.3623,-588.112,-242.8899,-0.1557817,0.6505919,-0.01592044,28.98359,54.0066,0,0,0
749,3.74,-0.006543061,-0.05190353,1.000973,62.65521,-587.5209,-277.5796,-0.1530792,0.6543379,-0.01950902,28.98606,54.02028,0,0,0
750,3.745,-0.004166148,-0.05128649,0.9989161,38.23304,-558.5656,-271.4348,-0.1524657,0.6524982,-0.01647045,28.98955,54.0352,0,0,0
751,3.75,-0.00668585,-0.04966616,0.9971852,76.93092,-551.9073,-243.1061,-0.1530789,0.6513378,-0.01200707,28.99402,54.05113,0,0,0
752,3.755,-0.002308391,-0.04782776,0.9954122,83.98601,-577.7315,-240.3275,-0.151972,0.6516513,-0.01307456,28.99938,54.06777,0,0,0
753,3.76,-0.004006723,-0.0512149,0.9977164,43.16604,-544.8404,-254.3367,-0.1515788,0.6558392,-0.01650768,29.00553,54.08485,0,0,0
754,3.765,-0.002393249,-0.04901053,0.9947016,90.42266,-566.4875,-271.3563,-0.1530859,0.6573931,-0.01519787,29.0123,54.10201,0,0,0
755,3.77,-0.003404674,-0.05111757,0.997798,98.00261,-592.4042,-218.3089,-0.1545794,0.6558375,-0.01050543,29.00637,54.09454,0,0,0
756,3.775,-0.0006430497,-0.0486337,0.9910014,23.51309,-617.1923,-233.3645,-0.153104,0.6498393,-0.008600518,29.00107,54.08707,0,0,0
757,3.78,-0.005149283,-0.05081996,0.9977066,91.41402,-554.9178,-198.0739,-0.1515784,0.6468351,-0.01050608,28.99652,54.07987,0,0,0
758,3.785,-0.00269273,-0.0485915,0.9934555,85.32869,-622.1595,-264.0616,-0.1514744,0.6470876,-0.01291017,28.99283,54.07313,0,0,0
759,3.79,-0.005559534,-0.05206028,0.9978055,49.96637,-538.5284,-243.3783,-0.1515787,0.6513366,-0.01500805,28.99006,54.06706,0,0,0
760,3.795,-0.001017914,-0.04966234,0.9922666,90.94823,-641.3454,-238.5327,-0.1506667,0.6521426,-0.01683402,28.98829,54.06181,0,0,0
761,3.8,-0.005110813,-0.05148437,0.9964697,112.2835,-526.2465,-217.9697,-0.1530804,0.6498352,-0.01650832,28.98752,54.05753,0,0,0
762,3.805,-0.001246307,-0.05033192,0.9952279,73.50599,-618.0234,-237.1808,-0.1588918,0.6444762,-0.01445064,28.98779,54.05432,0,0,0
763,3.81,-0.004149821,-0.04930492,0.9998707,65.96585,-516.4496,-223.4323,-0.1620813,0.6438347,-0.01500833,28.98907,54.0523,0,0,0
764,3.815,-0.0006133938,-0.049928,0.99826,42.14447,-622.165,-261.2445,-0.1567781,0.6468969,-0.01813322,28.99137,54.05153,0,0,0
765,3.82,-0.005009072,-0.05079949,0.9968739,82.07062,-535.7336,-224.825,-0.1485774,0.6528376,-0.01800846,28.99463,54.05206,0,0,0
766,3.825,-0.003132544,-0.0496473,0.9959614,59.46948,-608.5235,-233.2025,-0.1461336,0.6543235,-0.0139755,28.9988,54.05389,0,0,0
767,3.83,-0.003247408,-0.05192329,0.9990612,85.71517,-548.6915,-249.0664,-0.1515793,0.6528362,-0.01350784,29.00382,54.05698,0,0,0
768,3.835,-0.002097304,-0.05002553,0.9995205,100.4399,-553.8903,-278.8717,-0.1567592,0.6478921,-0.01787597,29.00959,54.06126,0,0,0
769,3.84,-0.003713869,-0.05130398,1.00111,94.22084,-588.4665,-257.6164,-0.1560793,0.6453346,-0.01800731,29.01599,54.0666,0,0,0
770,3.845,-0.004482428,-0.05101418,0.9977767,76.09784,-578.4816,-223.1303,-0.1510829,0.6449062,-0.01093397,29.02287,54.07278,0,0,0
771,3.85,-0.004507988,-0.05100169,1.000808,103.2546,-576.7221,-246.3968,-0.1485773,0.6498374,-0.007505599,29.01837,54.05787,0,0,0
772,3.855,-0.004266213,-0.05191001,1.001728,141.6656,-518.7635,-220.4653,-0.149569,0.654981,-0.01375174,29.01285,54.0411,0,0,0
773,3.86,-0.003166912,-0.05109525,1.00358,30.75388,-609.1542,-234.6486,-0.1515793,0.6588396,-0.01950837,29.00791,54.02546,0,0,0
774,3.865,-0.004951468,-0.0511529,1.0023,35.22873,-571.9764,-244.7308,-0.152878,0.6564988,-0.01581181,29.00368,54.01115,0,0,0
775,3.87,-0.001871295,-0.05178185,0.9984548,112.8961,-584.6972,-261.2632,-0.1560809,0.6528374,-0.01050651,29.00023,53.99835,0,0,0
776,3.875,-0.006613811,-0.05174,1.002141,55.6389,-530.1388,-246.2118,-0.1590925,0.6495416,-0.01320609,28.99766,53.98711,0,0,0
777,3.88,-0.004510956,-0.05037472,1.002171,82.98236,-580.8104,-236.8253,-0.1575804,0.6513378,-0.01800731,28.99599,53.97752,0,0,0
778,3.885,-0.006886763,-0.05238752,1.002274,7.820208,-539.4175,-229.2272,-0.1520018,0.6534801,-0.01471266,28.99527,53.96955,0,0,0
779,3.89,-0.004456725,-0.04979179,0.9960167,57.87098,-579.5285,-285.0237,-0.1515801,0.6558394,-0.007504954,28.99551,53.96318,0,0,0
780,3.895,-0.007737663,-0.05069211,1.002497,123.2503,-500.6365,-248.5021,-0.1583529,0.6557469,-0.007679772,28.99673,53.95832,0,0,0
781,3.9,-0.002821298,-0.04851491,0.9981981,116.6842,-609.1819,-267.0572,-0.1635826,0.6573395,-0.01500776,28.99889,53.95493,0,0,0
782,3.905,-0.007058864,-0.05285461,1.004912,184.0335,-502.3167,-221.7126,-0.1594503,0.6567718,-0.01886079,29.00198,53.95282,0,0,0
783,3.91,-0.00104414,-0.04866938,0.9970624,45.64726,-592.9921,-235.954,-0.1530798,0.6543378,-0.01500712,29.00595,53.95188,0,0,0
784,3.915,-0.007489794,-0.05251202,0.9997823,67.19955,-517.5147,-257.0273,-0.1529793,0.6493026,-0.01001922,29.01072,53.9519,0,0,0
785,3.92,-0.003175125,-0.04970478,0.9941804,154.5303,-575.4069,-277.7717,-0.1575815,0.6498376,-0.01050686,29.0162,53.95267,0,0,0
786,3.925,-0.005713198,-0.05068173,1.000073,70.25385,-502.2321,-262.6124,-0.158859,0.6537973,-0.01489119,29.02225,53.95395,0,0,0
787,3.93,-0.001598114,-0.05024647,0.9965213,47.19734,-593.9868,-236.5081,-0.1575817,0.6573391,-0.01800931,29.01849,53.93642,0,0,0
788,3.935,-0.006251796,-0.05054582,0.99705,137.9868,-507.5182,-180.2787,-0.157655,0.6539741,-0.01827178,29.01231,53.91387,0,0,0
789,3.94,0.0006934192,-0.04980107,0.9926524,116.7569,-601.1512,-237.7018,-0.1590817,0.6513378,-0.01800903,29.00682,53.89204,0,0,0
790,3.945,-0.003083301,-0.04996528,0.9971112,124.183,-531.5585,-227.8349,-0.15798,0.6519962,-0.01800389,29.00212,53.87122,0,0,0
791,3.95,-0.003137513,-0.05041009,0.9969874,98.44045,-562.296,-236.0914,-0.1560805,0.6558388,-0.0165079,28.99832,53.85168,0,0,0
792,3.955,-0.001958695,-0.04987097,0.99678,168.4194,-546.4872,-240.1635,-0.1551402,0.6548885,-0.01349966,28.99549,53.83363,0,0,0
793,3.96,-0.002699355,-0.05066488,0.9938161,68.99331,-621.3749,-249.5101,-0.1545799,0.6528376,-0.01200592,28.99366,53.81731,0,0,0
794,3.965,-0.00414819,-0.05119694,0.9945017,94.25178,-561.8665,-222.7923,-0.153119,0.6512176,-0.01235537,28.99287,53.80288,0,0,0
795,3.97,-0.002388714,-0.05058639,0.9966192,53.75815,-527.7099,-174.4923,-0.1545808,0.6528379,-0.01050415,28.99314,53.79055,0,0,0
796,3.975,-0.001963942,-0.05086788,0.9992954,60.49454,-610.3963,-226.1145,-0.1588419,0.6527995,-0.00502194,28.99445,53.78045,0,0,0
797,3.98,-0.003899409,-0.05004746,0.9967449,177.8726,-578.3311,-317.1898,-0.1605811,0.654339,-0.001502494,28.99677,53.7727,0,0,0
798,3.985,-0.003683588,-0.05076009,0.9967798,176.3857,-561.4681,-183.3483,-0.155585,0.6556732,-0.004579932,29.00007,53.76742,0,0,0
799,3.99,-0.003273967,-0.04988557,0.9973973,89.41911,-542.2545,-202.0683,-0.1500783,0.6573396,-0.01050543,29.00429,53.76464,0,0,0
800,3.995,-0.001591539,-0.05061863,1.000232,26.57061,-591.4706,-220.5114,-0.1501206,0.6551964,-0.01241571,29.00933,53.76438,0,0,0
801,4,-0.00505171,-0.05173663,1.000358,73.25835,-619.3524,-291.4731,-0.1545802,0.6543381,-0.01050629,29.01509,53.76658,0,0,0
802,4.005,-0.004038944,-0.05112808,0.9972672,105.3548,-595.296,-233.2303,-0.1567797,0.6535011,-0.01062819,29.02144,53.77114,0,0,0
803,4.01,-0.003658686,-0.05217276,0.9995254,84.92413,-558.1736,-207.3036,-0.1560803,0.6528368,-0.01500819,29.01942,53.7616,0,0,0
804,4.015,-0.002380422,-0.04867497,0.9983203,94.8205,-652.7017,-248.8361,-0.154353,0.6484772,-0.01894048,29.01347,53.74625,0,0,0
805,4.02,-0.004913664,-0.05192025,1.00442,156.4923,-568.791,-192.9075,-0.1530792,0.6468354,-0.01800817,29.00814,53.7336,0,0,0
806,4.025,-0.002025948,-0.05043244,0.9995513,66.28334,-593.2643,-254.959,-0.151793,0.6478315,-0.01399779,29.00355,53.72391,0,0,0
807,4.03,-0.005730966,-0.05276739,1.001705,115.3104,-524.3477,-252.8733,-0.1530798,0.6513374,-0.01200643,28.99978,53.71735,0,0,0
808,4.035,-0.002443704,-0.05080618,0.9959447,87.56736,-586.4366,-232.4097,-0.1561703,0.6518975,-0.0130366,28.99692,53.71402,0,0,0
809,4.04,-0.005936562,-0.05172358,1.003458,153.0933,-486.4162,-218.6579,-0.1575806,0.6543396,-0.01350613,28.995,53.714,0,0,0
810,4.045,-0.003296238,-0.05105001,0.999782,66.42928,-601.2232,-202.3157,-0.154995,0.6576535,-0.01123506,28.99407,53.71723,0,0,0
811,4.05,-0.005871076,-0.05083223,1.002934,79.83099,-555.9686,-230.2883,-0.1530792,0.6603397,-0.009005086,28.99415,53.72365,0,0,0
812,4.055,-0.003975287,-0.05004838,0.9986232,40.53196,-601.9759,-264.2929,-0.1534215,0.6548404,-0.009711233,28.99521,53.73313,0,0,0
813,4.06,-0.006931067,-0.05024487,0.9997609,89.64708,-548.7953,-289.3659,-0.1530783,0.6468346,-0.01200621,28.99728,53.74548,0,0,0
814,4.065,-0.005147362,-0.05153348,0.9996517,196.0622,-575.1619,-200.7533,-0.1498244,0.6421542,-0.01270257,29.00031,53.76046,0,0,0
815,4.07,-0.00585845,-0.05006339,1.000192,152.1943,-527.6517,-235.2688,-0.1485771,0.6468357,-0.0120065,29.00426,53.77781,0,0,0
816,4.075,-0.003731092,-0.05015303,0.9974027,88.54993,-571.0101,-248.8494,-0.1500499,0.6519259,-0.01221478,29.00904,53.79717,0,0,0
817,4.08,-0.004633355,-0.05006927,0.9954584,158.7687,-559.39,-231.0261,-0.1500778,0.6528372,-0.01350699,29.01458,53.81816,0,0,0
818,4.085,-0.003433541,-0.04906647,0.9956308,128.6569,-533.2223,-264.4291,-0.1479038,0.6486137,-0.01390888,29.02076,53.84034,0,0,0
819,4.09,-0.004240711,-0.05068855,0.9985468,83.40994,-555.0374,-311.579,-0.1515807,0.6498384,-0.01350784,29.02008,53.84963,0,0,0
820,4.095,-0.002769286,-0.05121365,0.9946094,118.0261,-539.2941,-215.6983,-0.1605875,0.655785,-0.014708,29.01404,53.84859,0,0,0
821,4.1,-0.001833005,-0.0504727,0.9946734,164.5087,-550.4708,-252.3923,-0.1635822,0.6618412,-0.0180091,29.00867,53.84816,0,0,0
822,4.105,-0.003192259,-0.04907626,0.9930556,91.59104,-527.2173,-267.6566,-0.1546872,0.6592833,-0.01971678,29.00409,53.84841,0,0,0
823,4.11,-0.003839216,-0.05027669,0.9956622,119.3924,-560.7737,-191.8724,-0.1470789,0.6543381,-0.01650711,29.00042,53.84933,0,0,0
824,4.115,-0.004449031,-0.04984277,0.9964972,33.7081,-548.4195,-254.9019,-0.1518477,0.6510524,-0.01074852,28.99771,53.85094,0,0,0
825,4.12,-0.003481363,-0.05146803,0.9966517,127.6483,-570.8902,-244.0374,-0.1620828,0.6528381,-0.00900616,28.99603,53.8532,0,0,0
826,4.125,-0.002298416,-0.05083938,0.9931843,87.41343,-548.9018,-220.6794,-0.1626352,0.6537524,-0.01367529,28.99541,53.85607,0,0,0
827,4.13,-0.002712423,-0.04908106,0.9947748,84.35524,-524.3993,-246.6952,-0.1545796,0.6558397,-0.01950923,28.99588,53.85952,0,0,0
828,4.135,-0.002688828,-0.0511786,0.9979978,42.01616,-532.8181,-231.6117,-0.1495469,0.6572167,-0.01983117,28.99742,53.86346,0,0,0
829,4.14,-0.002776867,-0.04955731,0.9970831,4.539944,-566.6928,-213.1355,-0.1530798,0.6588404,-0.01500755,29.00001,53.86789,0,0,0
830,4.145,-0.003060034,-0.05128252,0.9969621,11.10168,-571.103,-265.4773,-0.1576289,0.656588,-0.01139659,29.00361,53.87268,0,0,0
831,4.15,-0.001633689,-0.04888606,0.9937596,-10.7116,-588.4997,-220.7963,-0.1575806,0.6558397,-0.0135087,29.00817,53.8778,0,0,0
832,4.155,-0.003999387,-0.05122934,0.9982451,81.47236,-563.6732,-224.9306,-0.1542919,0.6565185,-0.01910268,29.01361,53.88314,0,0,0
833,4.16,-0.0009156512,-0.05016023,0.9960874,27.30877,-582.5892,-273.7112,-0.1530794,0.6588397,-0.02251057,29.01982,53.8886,0,0,0
834,4.165,-0.004827569,-0.05156881,1.002039,78.03771,-559.3715,-235.5306,-0.1537266,0.6560235,-0.02041436,29.02666,53.894,0,0,0
835,4.17,-0.001211794,-0.04900035,0.9954444,92.26392,-618.5283,-249.253,-0.1545805,0.6513358,-0.01500748,29.0281,53.88831,0,0,0
836,4.175,-0.00529917,-0.05057028,1.000199,167.1693,-555.8528,-214.296,-0.1550499,0.6460901,-0.01164967,29.02265,53.86884,0,0,0
837,4.18,-0.002595933,-0.05025854,1.000286,133.3484,-615.8722,-232.4173,-0.1575817,0.6453346,-0.01350763,29.01778,53.84967,0,0,0
838,4.185,-0.007086367,-0.05169133,1.002971,71.79647,-573.2814,-213.2698,-0.1601392,0.6464468,-0.01758224,29.01362,53.83117,0,0,0
839,4.19,-0.003451814,-0.05100339,0.999552,14.08881,-607.8099,-271.7949,-0.1590806,0.6513378,-0.01800731,29.01024,53.81367,0,0,0
840,4.195,-0.005472907,-0.05045395,1.001126,76.8208,-522.2219,-276.8433,-0.1535974,0.6547418,-0.01292761,29.00772,53.79746,0,0,0
841,4.2,-0.002312761,-0.05049681,0.998292,40.36171,-637.5266,-229.9498,-0.1500783,0.6558384,-0.007504954,29.00609,53.78283,0,0,0
842,4.205,-0.00551805,-0.05149758,1.00359,81.91502,-559.6693,-247.5653,-0.1514194,0.65192,-0.008155483,29.00539,53.76998,0,0,0
843,4.21,-0.002344314,-0.0509955,1.000673,80.58749,-599.3914,-218.7663,-0.1545799,0.6498361,-0.01500862,29.00563,53.75912,0,0,0
844,4.215,-0.00575979,-0.05148073,1.002373,65.58864,-574.5649,-228.2437,-0.15471,0.6490765,-0.02090617,29.0068,53.75043,0,0,0
845,4.22,-0.003016243,-0.05147394,0.9986427,85.24358,-603.166,-298.2224,-0.1545808,0.6498359,-0.01950837,29.00887,53.74399,0,0,0
846,4.225,-0.007090459,-0.05085229,1.002243,43.12342,-546.6511,-217.057,-0.1572041,0.6477636,-0.0124916,29.01182,53.73993,0,0,0
847,4.23,-0.005167347,-0.05128864,0.9992998,28.67563,-591.921,-245.7334,-0.1605814,0.6483365,-0.007505026,29.01559,53.73826,0,0,0
848,4.235,-0.005420782,-0.05239037,1.001667,104.2729,-566.4052,-276.1306,-0.1582115,0.6506694,-0.008839554,29.02011,53.73899,0,0,0
849,4.24,-0.005384303,-0.0496956,0.9980081,58.04231,-620.6311,-262.1227,-0.1515788,0.6543384,-0.01350741,29.02528,53.74202,0,0,0
850,4.245,-0.004701669,-0.05134392,1.000208,31.45359,-563.5645,-247.6589,-0.1484947,0.6539369,-0.01641894,29.03099,53.74725,0,0,0
851,4.25,-0.003343542,-0.04967711,0.9975266,44.9851,-571.4808,-266.9118,-0.1545817,0.6543384,-0.01650796,29.03269,53.74626,0,0,0
852,4.255,-0.002790013,-0.05115722,0.9984986,110.5344,-534.2175,-257.6118,-0.1627477,0.6545644,-0.01526113,29.02594,53.73086,0,0,0
853,4.26,-0.004455633,-0.05028568,0.9971552,143.0628,-559.996,-259.7208,-0.1635831,0.6543373,-0.01350699,29.01969,53.71772,0,0,0
854,4.265,-0.002895761,-0.05034707,0.9926451,89.83401,-603.698,-241.6509,-0.1568581,0.6492926,-0.01210949,29.01408,53.70708,0,0,0
855,4.27,-0.00389514,-0.05202306,0.9960586,55.29122,-533.2665,-264.536,-0.15308,0.646836,-0.0135087,29.00924,53.69914,0,0,0
856,4.275,-6.387744e-05,-0.04812268,0.9958091,20.32569,-584.1246,-281.69,-0.1554024,0.648591,-0.0182566,29.00525,53.69401,0,0,0
857,4.28,-0.003921173,-0.05149108,0.9997338,65.96357,-528.9171,-197.6544,-0.1575813,0.6543388,-0.02251079,29.00217,53.69175,0,0,0
858,4.285,0.0003951146,-0.04997183,0.9929659,96.08491,-549.9738,-223.81,-0.1553829,0.65639,-0.02167552,29.00008,53.69233,0,0,0
859,4.29,-0.005008082,-0.05213581,0.9971887,71.03255,-538.2654,-221.4057,-0.1560825,0.6573395,-0.01650768,28.99899,53.69572,0,0,0
860,4.295,0.0001552787,-0.04974696,0.993259,78.81443,-645.6193,-227.3532,-0.1621708,0.6560661,-0.01210872,28.99893,53.7018,0,0,0
861,4.3,-0.00552371,-0.05195449,1.002673,87.12595,-513.3308,-262.0442,-0.165083,0.6543379,-0.01200685,28.9999,53.71042,0,0,0
862,4.305,0.0001619201,-0.04810885,0.9955648,87.10313,-641.2598,-253.9486,-0.1573979,0.6503903,-0.01475799,29.00188,53.72136,0,0,0
863,4.31,-0.00512117,-0.0496593,0.9985052,71.6731,-519.6174,-251.7297,-0.1485788,0.6513378,-0.01650739,29.00485,53.73437,0,0,0
864,4.315,-0.0007025678,-0.0492955,0.9955528,105.2484,-582.5919,-221.9932,-0.1498785,0.6544471,-0.01472924,29.00874,53.74915,0,0,0
865,4.32,-0.005481079,-0.05077388,1.000141,95.26136,-495.9238,-260.8139,-0.1590825,0.6558384,-0.01050522,29.01348,53.76536,0,0,0
866,4.325,-0.001499855,-0.050533,0.9984459,111.2707,-620.7782,-237.1319,-0.1636388,0.650961,-0.00765391,29.01897,53.78256,0,0,0
867,4.33,-0.002888014,-0.051658,1.000163,133.3843,-531.7298,-255.7023,-0.160582,0.6498372,-0.009005302,29.02212,53.79484,0,0,0
868,4.335,-0.001191809,-0.05157355,0.996707,1.361184,-612.1359,-256.6534,-0.1554451,0.6535002,-0.01250331,29.01555,53.78822,0,0,0
869,4.34,-0.002631179,-0.05311872,0.9995984,150.9166,-563.7895,-199.5494,-0.1530786,0.6573386,-0.01350584,29.00966,53.78189,0,0,0
870,4.345,-0.00118576,-0.05184042,1.000751,154.5551,-566.1852,-215.2113,-0.1513062,0.6531253,-0.01063543,29.00461,53.77596,0,0,0
871,4.35,-0.003474944,-0.05261822,1.002504,85.44048,-586.0239,-232.1998,-0.1500787,0.649837,-0.007504096,29.00048,53.77045,0,0,0
872,4.355,-0.004409156,-0.05092137,0.999496,91.272,-611.0374,-198.5965,-0.151643,0.651449,-0.00725419,28.99737,53.7654,0,0,0
873,4.36,-0.005815728,-0.05252524,1.001148,111.0269,-596.3207,-197.9571,-0.1575824,0.655838,-0.00900523,28.99533,53.76079,0,0,0
874,4.365,-0.00536448,-0.05051498,1.001846,61.44233,-542.5482,-253.9902,-0.1625576,0.6532276,-0.01052684,28.9944,53.75664,0,0,0
875,4.37,-0.006708638,-0.05024406,1.005121,77.2943,-577.9192,-237.3694,-0.1620828,0.649837,-0.01200664,28.99458,53.75294,0,0,0
876,4.375,-0.007966581,-0.05031294,1.002745,114.2989,-541.1418,-192.776,-0.157219,0.6503721,-0.01398821,28.99588,53.74968,0,0,0
877,4.38,-0.005608147,-0.04964901,1.0008,-17.52074,-569.1679,-250.4098,-0.1545791,0.6558386,-0.0150069,28.99826,53.74686,0,0,0
878,4.385,-0.006625589,-0.04950602,1.000708,5.829083,-543.6373,-273.2272,-0.1538791,0.6562292,-0.01336485,29.00169,53.7445,0,0,0
879,4.39,-0.003916724,-0.0483209,1.000457,13.3,-567.3464,-286.9232,-0.1500763,0.6528366,-0.01050522,29.0061,53.74258,0,0,0
880,4.395,-0.005143981,-0.05092895,1.002953,80.78358,-558.4611,-261.9561,-0.1425882,0.6474285,-0.009003994,29.01141,53.74111,0,0,0
881,4.4,-0.002351887,-0.04903468,0.996538,138.6549,-563.5026,-271.3264,-0.1410761,0.6453338,-0.009004085,29.01751,53.74009,0,0,0
882,4.405,-0.003687616,-0.05129576,0.9972128,-33.95311,-556.7994,-195.0541,-0.1488502,0.6435977,-0.008227324,29.02426,53.73949,0,0,0
883,4.41,-0.001673364,-0.04851665,0.9931535,70.91489,-584.7927,-214.5744,-0.1575811,0.6453346,-0.006003105,29.03003,53.73649,0,0,0
884,4.415,-0.005772512,-0.05138719,1.000268,126.2296,-522.6233,-242.8154,-0.1580344,0.647878,-0.004481245,29.02443,53.71204,0,0,0
885,4.42,-0.001030778,-0.04915641,0.9955321,31.81224,-628.3134,-241.7413,-0.1545796,0.6513366,-0.006004536,29.01932,53.68847,0,0,0
886,4.425,-0.005080082,-0.05115073,0.9982746,70.83714,-569.2225,-205.5332,-0.1532682,0.6506881,-0.009911294,29.0148,53.66629,0,0,0
887,4.43,-0.002674864,-0.0489525,0.9935488,101.5241,-662.8326,-264.289,-0.1530787,0.6498361,-0.0135072,29.01097,53.64596,0,0,0
888,4.435,-0.005594969,-0.05129145,0.9974235,107.152,-570.0489,-224.6821,-0.1503826,0.6485937,-0.01500119,29.00792,53.62788,0,0,0
889,4.44,-0.002994922,-0.05044455,0.9972153,143.2741,-588.6451,-274.3393,-0.1500791,0.6498361,-0.01500748,29.00567,53.6124,0,0,0
890,4.445,-0.005243151,-0.05103356,0.9987878,170.0627,-523.0181,-206.0889,-0.1544125,0.6493433,-0.01446902,29.00426,53.59982,0,0,0
891,4.45,-0.003624433,-0.04964181,0.9929832,125.5112,-578.8159,-179.6276,-0.1575802,0.6498368,-0.01350699,29.00372,53.59039,0,0,0
892,4.455,-0.003818735,-0.04877279,0.9944698,139.6393,-532.1658,-230.2092,-0.1534898,0.6505368,-0.012569,29.00404,53.58426,0,0,0
893,4.46,-9.992639e-05,-0.04985644,0.995005,189.6544,-551.0658,-226.2315,-0.148578,0.6543378,-0.01350842,29.00521,53.58158,0,0,0
894,4.465,-0.002330803,-0.0508212,0.9971532,137.0399,-573.5015,-246.6764,-0.1497912,0.6547256,-0.01703886,29.00723,53.58237,0,0,0
895,4.47,-0.0002352366,-0.05104614,0.9948791,30.0766,-597.936,-250.9318,-0.1545795,0.6513363,-0.02101087,29.01004,53.58661,0,0,0
896,4.475,-0.003585386,-0.05034005,0.9944886,117.9665,-575.1182,-235.2511,-0.154664,0.6454302,-0.02250193,29.01362,53.59419,0,0,0
897,4.48,-0.001913753,-0.04960002,0.9941414,100.2049,-594.1691,-211.823,-0.1515793,0.6468363,-0.02100944,29.01786,53.60489,0,0,0
898,4.485,-0.002828517,-0.05215006,0.9994021,215.5459,-591.1434,-231.9837,-0.1515304,0.6522107,-0.01755346,29.02271,53.61847,0,0,0
899,4.49,-0.003794727,-0.05119049,0.9979605,163.7678,-605.0935,-222.566,-0.1560807,0.6558384,-0.01350677,29.02801,53.63451,0,0,0
900,4.495,-0.003481092,-0.05112769,0.9989756,108.2913,-574.8235,-216.0357,-0.1585205,0.6519076,-0.01096961,29.02048,53.62807,0,0,0
901,4.5,-0.004158536,-0.04905351,0.9965206,158.1711,-574.7308,-229.0388,-0.1560799,0.6498367,-0.01200678,29.01348,53.62376,0,0,0
902,4.505,-0.004533002,-0.05149385,1.001301,77.82142,-611.375,-244.8894,-0.1518457,0.6511146,-0.01484972,29.00716,53.6216,0,0,0
903,4.51,-0.005303513,-0.05116561,1.001079,77.72211,-569.6183,-285.3398,-0.1515795,0.6528368,-0.01500712,29.00166,53.62156,0,0,0
904,4.515,-0.005367227,-0.05094345,1.001855,36.51559,-564.1578,-259.3549,-0.155007,0.6483588,-0.01185522,28.9971,53.62354,0,0,0
905,4.52,-0.00511683,-0.04976148,0.9985272,112.833,-558.3202,-226.9986,-0.1590826,0.6468368,-0.01050686,28.99356,53.62741,0,0,0
906,4.525,-0.004100653,-0.04979696,0.9979276,76.89983,-522.6916,-200.9886,-0.1604776,0.6515302,-0.01382685,28.99111,53.63298,0,0,0
907,4.53,-0.004628314,-0.05167157,1.000626,93.12341,-527.3489,-216.875,-0.1605831,0.6588395,-0.01800931,28.98979,53.64005,0,0,0
908,4.535,-0.003999956,-0.05025354,1.001045,113.1377,-558.404,-170.5826,-0.1605357,0.6564912,-0.01892199,28.98964,53.64839,0,0,0
909,4.54,-0.005689318,-0.05226142,1.001807,76.01965,-550.4452,-253.9455,-0.1605819,0.6498373,-0.01800874,28.99064,53.65778,0,0,0
910,4.545,-0.003706187,-0.0490372,0.9981484,107.5061,-571.2763,-289.6055,-0.1582874,0.6476316,-0.01725039,28.9928,53.66801,0,0,0
911,4.55,-0.005048036,-0.05108756,1.002216,108.6794,-578.1595,-208.6003,-0.1545797,0.6558399,-0.01500712,28.99606,53.67886,0,0,0
912,4.555,-0.004886558,-0.05074682,1.000013,43.41661,-632.8391,-240.9083,-0.1519785,0.6621611,-0.01108419,29.00038,53.6901,0,0,0
913,4.56,-0.00700659,-0.05133756,1.002207,45.09985,-527.8203,-212.0853,-0.1530792,0.6603398,-0.01050694,29.00564,53.70154,0,0,0
914,4.565,-0.003515775,-0.05057564,0.9968583,93.99506,-602.4842,-225.852,-0.1545455,0.6512931,-0.01564443,29.01174,53.71298,0,0,0
915,4.57,-0.005873621,-0.05085922,0.9982563,53.61801,-549.2266,-211.4564,-0.1530785,0.6483366,-0.02101044,29.01853,53.72418,0,0,0
916,4.575,-0.0007442633,-0.05033263,0.9958352,77.60511,-599.4771,-246.4107,-0.149116,0.6519473,-0.02103301,29.0141,53.71315,0,0,0
917,4.58,-0.004505843,-0.05115426,0.9982755,132.0187,-582.4536,-249.2329,-0.1485781,0.6573389,-0.01800889,29.0088,53.69934,0,0,0
918,4.585,-0.0002993642,-0.05052213,0.9958532,91.4429,-653.7429,-242.8811,-0.1526777,0.6549468,-0.01621375,29.00422,53.68591,0,0,0
919,4.59,-0.003596479,-0.05043206,0.9969162,128.3076,-525.7043,-268.905,-0.1575815,0.6498353,-0.01500719,29.00043,53.67328,0,0,0
920,4.595,-0.0006558889,-0.04957275,0.9935619,36.53095,-588.6794,-268.6151,-0.1585779,0.645399,-0.01271793,28.99751,53.66185,0,0,0
921,4.6,-0.00197072,-0.05029471,0.9976019,92.97007,-560.8923,-237.2348,-0.1575811,0.645334,-0.01200685,28.99548,53.65198,0,0,0
922,4.605,-0.0006604473,-0.04860499,0.9951042,89.84692,-587.4072,-259.8311,-0.1563002,0.6446753,-0.01451882,28.99435,53.64402,0,0,0
923,4.61,-0.003883793,-0.05066084,0.9986728,99.21348,-577.4594,-209.0623,-0.1545794,0.6468365,-0.01650796,28.99413,53.63831,0,0,0
924,4.615,-0.002248425,-0.04870013,0.9927842,39.11788,-603.472,-189.1328,-0.1517468,0.6510029,-0.01494891,28.99479,53.63511,0,0,0
925,4.62,-0.004742598,-0.05037246,0.9985804,94.51857,-584.4818,-190.6916,-0.1515788,0.6573398,-0.01350784,28.99631,53.63462,0,0,0
926,4.625,-0.003016325,-0.04881927,0.9957618,181.4489,-567.0757,-217.5453,-0.1539356,0.6582731,-0.01601882,28.99863,53.63707,0,0,0
927,4.63,-0.005333612,-0.05194696,1.00015,128.8787,-563.7108,-174.2138,-0.1545788,0.655838,-0.01950923,29.00171,53.64252,0,0,0
928,4.635,-0.003701979,-0.05013601,0.995528,72.5671,-619.2208,-221.3087,-0.1506608,0.6511312,-0.01874988,29.00546,53.65104,0,0,0
